%time,field.header.seq,field.header.stamp,field.header.frame_id,field.orientation.x,field.orientation.y,field.orientation.z,field.orientation.w,field.orientation_covariance0,field.orientation_covariance1,field.orientation_covariance2,field.orientation_covariance3,field.orientation_covariance4,field.orientation_covariance5,field.orientation_covariance6,field.orientation_covariance7,field.orientation_covariance8,field.angular_velocity.x,field.angular_velocity.y,field.angular_velocity.z,field.angular_velocity_covariance0,field.angular_velocity_covariance1,field.angular_velocity_covariance2,field.angular_velocity_covariance3,field.angular_velocity_covariance4,field.angular_velocity_covariance5,field.angular_velocity_covariance6,field.angular_velocity_covariance7,field.angular_velocity_covariance8,field.linear_acceleration.x,field.linear_acceleration.y,field.linear_acceleration.z,field.linear_acceleration_covariance0,field.linear_acceleration_covariance1,field.linear_acceleration_covariance2,field.linear_acceleration_covariance3,field.linear_acceleration_covariance4,field.linear_acceleration_covariance5,field.linear_acceleration_covariance6,field.linear_acceleration_covariance7,field.linear_acceleration_covariance8
1581281143403380568,1,1581281143402796745,imu,0.00660946322,0.000400919419753,0.7057664162,0.708413664481,0.0,0.0,0.0,0.0,0.0,0.0,0.0,0.0,0.0,-0.001597,0.000751,-0.0004,0.0,0.0,0.0,0.0,0.0,0.0,0.0,0.0,0.0,-0.1,-0.078,-9.602,0.0,0.0,0.0,0.0,0.0,0.0,0.0,0.0,0.0
1581281143423855311,2,1581281143422953128,imu,0.00660949019669,0.000413203058279,0.705760226774,0.708419823414,0.0,0.0,0.0,0.0,0.0,0.0,0.0,0.0,0.0,-0.000693,0.001901,-0.0006,0.0,0.0,0.0,0.0,0.0,0.0,0.0,0.0,0.0,-0.082,-0.096,-9.582,0.0,0.0,0.0,0.0,0.0,0.0,0.0,0.0,0.0
1581281143449041562,3,1581281143448041200,imu,0.00662181099529,0.000400780477867,0.705754052162,0.70842586687,0.0,0.0,0.0,0.0,0.0,0.0,0.0,0.0,0.0,-3.1e-05,0.000288,-0.0009,0.0,0.0,0.0,0.0,0.0,0.0,0.0,0.0,0.0,-0.084,-0.091,-9.593,0.0,0.0,0.0,0.0,0.0,0.0,0.0,0.0,0.0
1581281143474080632,4,1581281143472946643,imu,0.00662178401931,0.000388496946939,0.705760241425,0.708419707991,0.0,0.0,0.0,0.0,0.0,0.0,0.0,0.0,0.0,0.000802,0.000164,-0.0,0.0,0.0,0.0,0.0,0.0,0.0,0.0,0.0,0.0,-0.073,-0.093,-9.594,0.0,0.0,0.0,0.0,0.0,0.0,0.0,0.0,0.0
1581281143498893061,5,1581281143497984170,imu,0.00660947371378,0.000400746384273,0.705747869732,0.70843214116,0.0,0.0,0.0,0.0,0.0,0.0,0.0,0.0,0.0,0.000787,0.000362,0.0006,0.0,0.0,0.0,0.0,0.0,0.0,0.0,0.0,0.0,-0.099,-0.095,-9.599,0.0,0.0,0.0,0.0,0.0,0.0,0.0,0.0,0.0
1581281143524734689,6,1581281143523671865,imu,0.00661562536912,0.00039467934413,0.705760237788,0.708419765736,0.0,0.0,0.0,0.0,0.0,0.0,0.0,0.0,0.0,-5.1e-05,0.000939,0.0007,0.0,0.0,0.0,0.0,0.0,0.0,0.0,0.0,0.0,-0.061,-0.087,-9.597,0.0,0.0,0.0,0.0,0.0,0.0,0.0,0.0,0.0
1581281143549154076,7,1581281143547948122,imu,0.00660328114429,0.000394760445881,0.705766419672,0.708413722133,0.0,0.0,0.0,0.0,0.0,0.0,0.0,0.0,0.0,-0.000485,0.000288,-0.0001,0.0,0.0,0.0,0.0,0.0,0.0,0.0,0.0,0.0,-0.073,-0.104,-9.59,0.0,0.0,0.0,0.0,0.0,0.0,0.0,0.0,0.0
1581281143574724068,8,1581281143573647260,imu,0.00660944324017,0.000388520424175,0.705760241206,0.708419823442,0.0,0.0,0.0,0.0,0.0,0.0,0.0,0.0,0.0,0.00074,-0.000989,0.0003,0.0,0.0,0.0,0.0,0.0,0.0,0.0,0.0,0.0,-0.079,-0.096,-9.608,0.0,0.0,0.0,0.0,0.0,0.0,0.0,0.0,0.0
1581281143599753446,9,1581281143597810506,imu,0.00659710245902,0.000388543901415,0.705760240987,0.708419938677,0.0,0.0,0.0,0.0,0.0,0.0,0.0,0.0,0.0,0.000742,0.001265,0.0005,0.0,0.0,0.0,0.0,0.0,0.0,0.0,0.0,0.0,-0.056,-0.083,-9.62,0.0,0.0,0.0,0.0,0.0,0.0,0.0,0.0,0.0
1581281143624198975,10,1581281143623556375,imu,0.00659710245902,0.000388543901415,0.705760240987,0.708419938677,0.0,0.0,0.0,0.0,0.0,0.0,0.0,0.0,0.0,0.000755,-0.000162,0.0,0.0,0.0,0.0,0.0,0.0,0.0,0.0,0.0,0.0,-0.078,-0.102,-9.6,0.0,0.0,0.0,0.0,0.0,0.0,0.0,0.0,0.0
1581281143649214443,11,1581281143648482322,imu,0.00660942304444,0.000376121428855,0.705754065942,0.708425982348,0.0,0.0,0.0,0.0,0.0,0.0,0.0,0.0,0.0,-0.00059,0.000222,0.0004,0.0,0.0,0.0,0.0,0.0,0.0,0.0,0.0,0.0,-0.098,-0.092,-9.597,0.0,0.0,0.0,0.0,0.0,0.0,0.0,0.0,0.0
1581281143674200930,12,1581281143673562288,imu,0.00660324086124,0.000369962562761,0.705754069198,0.708426039999,0.0,0.0,0.0,0.0,0.0,0.0,0.0,0.0,0.0,0.000297,-0.001244,-0.0008,0.0,0.0,0.0,0.0,0.0,0.0,0.0,0.0,0.0,-0.084,-0.095,-9.571,0.0,0.0,0.0,0.0,0.0,0.0,0.0,0.0,0.0
1581281143700376821,13,1581281143698499917,imu,0.00659707569752,0.000376260154538,0.705766429983,0.708413779743,0.0,0.0,0.0,0.0,0.0,0.0,0.0,0.0,0.0,-0.000369,0.000408,0.0012,0.0,0.0,0.0,0.0,0.0,0.0,0.0,0.0,0.0,-0.072,-0.111,-9.627,0.0,0.0,0.0,0.0,0.0,0.0,0.0,0.0,0.0
1581281143724260113,14,1581281143723489046,imu,0.00659707569752,0.000376260154538,0.705766429983,0.708413779743,0.0,0.0,0.0,0.0,0.0,0.0,0.0,0.0,0.0,-0.001459,-0.000299,0.0002,0.0,0.0,0.0,0.0,0.0,0.0,0.0,0.0,0.0,-0.073,-0.085,-9.586,0.0,0.0,0.0,0.0,0.0,0.0,0.0,0.0,0.0
1581281143749404119,15,1581281143748399972,imu,0.0065847381976,0.000376226061422,0.70576024766,0.70842005371,0.0,0.0,0.0,0.0,0.0,0.0,0.0,0.0,0.0,-0.001505,0.00055,-0.0003,0.0,0.0,0.0,0.0,0.0,0.0,0.0,0.0,0.0,-0.1,-0.095,-9.589,0.0,0.0,0.0,0.0,0.0,0.0,0.0,0.0,0.0
1581281143774347496,16,1581281143773494482,imu,0.00658471154359,0.000363942206528,0.705766436442,0.708413894776,0.0,0.0,0.0,0.0,0.0,0.0,0.0,0.0,0.0,-0.000977,0.001294,0.0005,0.0,0.0,0.0,0.0,0.0,0.0,0.0,0.0,0.0,-0.085,-0.109,-9.606,0.0,0.0,0.0,0.0,0.0,0.0,0.0,0.0,0.0
1581281143799200152,17,1581281143798403263,imu,0.00659088716032,0.000370216213285,0.705778797286,0.708401519231,0.0,0.0,0.0,0.0,0.0,0.0,0.0,0.0,0.0,-0.001042,-0.000155,0.0004,0.0,0.0,0.0,0.0,0.0,0.0,0.0,0.0,0.0,-0.116,-0.08,-9.583,0.0,0.0,0.0,0.0,0.0,0.0,0.0,0.0,0.0
1581281143824138253,18,1581281143823372602,imu,0.00660936666961,0.000351611827375,0.705772625389,0.708407505532,0.0,0.0,0.0,0.0,0.0,0.0,0.0,0.0,0.0,-0.000252,-0.000714,-0.0005,0.0,0.0,0.0,0.0,0.0,0.0,0.0,0.0,0.0,-0.091,-0.089,-9.594,0.0,0.0,0.0,0.0,0.0,0.0,0.0,0.0,0.0
1581281143849084866,19,1581281143848287820,imu,0.0066155284424,0.000345371806106,0.705766446599,0.70841360684,0.0,0.0,0.0,0.0,0.0,0.0,0.0,0.0,0.0,0.001315,-0.000389,0.0012,0.0,0.0,0.0,0.0,0.0,0.0,0.0,0.0,0.0,-0.073,-0.093,-9.57,0.0,0.0,0.0,0.0,0.0,0.0,0.0,0.0,0.0
1581281143874266958,20,1581281143873364925,imu,0.00660318464765,0.00034545279932,0.70577262843,0.708407563182,0.0,0.0,0.0,0.0,0.0,0.0,0.0,0.0,0.0,-0.000104,-0.001009,0.0009,0.0,0.0,0.0,0.0,0.0,0.0,0.0,0.0,0.0,-0.069,-0.104,-9.595,0.0,0.0,0.0,0.0,0.0,0.0,0.0,0.0,0.0
1581281143899006987,21,1581281143898289918,imu,0.00659702281921,0.000351692659126,0.705778807167,0.708401461712,0.0,0.0,0.0,0.0,0.0,0.0,0.0,0.0,0.0,-0.000207,0.000254,0.0016,0.0,0.0,0.0,0.0,0.0,0.0,0.0,0.0,0.0,-0.087,-0.086,-9.58,0.0,0.0,0.0,0.0,0.0,0.0,0.0,0.0,0.0
1581281143924155736,22,1581281143923366308,imu,0.00658468203544,0.000351715813289,0.705778806951,0.708401576732,0.0,0.0,0.0,0.0,0.0,0.0,0.0,0.0,0.0,-0.000239,0.000244,0.0003,0.0,0.0,0.0,0.0,0.0,0.0,0.0,0.0,0.0,-0.067,-0.123,-9.62,0.0,0.0,0.0,0.0,0.0,0.0,0.0,0.0,0.0
1581281143948932917,23,1581281143948308467,imu,0.00659083481829,0.000345648608945,0.705791174041,0.708389200983,0.0,0.0,0.0,0.0,0.0,0.0,0.0,0.0,0.0,0.000739,-0.000782,0.0017,0.0,0.0,0.0,0.0,0.0,0.0,0.0,0.0,0.0,-0.086,-0.094,-9.598,0.0,0.0,0.0,0.0,0.0,0.0,0.0,0.0,0.0
1581281143973934882,24,1581281143973265409,imu,0.00659083180168,0.000345706124816,0.705797355876,0.708383041766,0.0,0.0,0.0,0.0,0.0,0.0,0.0,0.0,0.0,0.000379,0.000861,0.0,0.0,0.0,0.0,0.0,0.0,0.0,0.0,0.0,0.0,-0.089,-0.102,-9.592,0.0,0.0,0.0,0.0,0.0,0.0,0.0,0.0,0.0
1581281143998835110,25,1581281143998250484,imu,0.0066093345224,0.000339443541475,0.705791177458,0.708389028216,0.0,0.0,0.0,0.0,0.0,0.0,0.0,0.0,0.0,0.000854,-0.000197,0.0009,0.0,0.0,0.0,0.0,0.0,0.0,0.0,0.0,0.0,-0.062,-0.086,-9.57,0.0,0.0,0.0,0.0,0.0,0.0,0.0,0.0,0.0
1581281144023994013,26,1581281144023261547,imu,0.00660930587262,0.000327217576973,0.705803547103,0.70837670974,0.0,0.0,0.0,0.0,0.0,0.0,0.0,0.0,0.0,-0.000241,-0.000786,-0.0006,0.0,0.0,0.0,0.0,0.0,0.0,0.0,0.0,0.0,-0.104,-0.106,-9.613,0.0,0.0,0.0,0.0,0.0,0.0,0.0,0.0,0.0
1581281144049259177,27,1581281144048233509,imu,0.00660928314824,0.00031487625777,0.705803552919,0.70837670975,0.0,0.0,0.0,0.0,0.0,0.0,0.0,0.0,0.0,0.000541,0.000224,0.0,0.0,0.0,0.0,0.0,0.0,0.0,0.0,0.0,0.0,-0.098,-0.108,-9.602,0.0,0.0,0.0,0.0,0.0,0.0,0.0,0.0,0.0
1581281144074258543,28,1581281144073222160,imu,0.00660928040018,0.000314933934634,0.705809734645,0.708370550425,0.0,0.0,0.0,0.0,0.0,0.0,0.0,0.0,0.0,0.000123,-0.00014,0.0005,0.0,0.0,0.0,0.0,0.0,0.0,0.0,0.0,0.0,-0.083,-0.08,-9.613,0.0,0.0,0.0,0.0,0.0,0.0,0.0,0.0,0.0
1581281144098867921,29,1581281144098145961,imu,0.00661546209914,0.000321093286503,0.70580973187,0.708370492722,0.0,0.0,0.0,0.0,0.0,0.0,0.0,0.0,0.0,-0.001314,-0.001085,0.0005,0.0,0.0,0.0,0.0,0.0,0.0,0.0,0.0,0.0,-0.086,-0.106,-9.599,0.0,0.0,0.0,0.0,0.0,0.0,0.0,0.0,0.0
1581281144124040345,30,1581281144123181104,imu,0.00661546770227,0.000320977824859,0.705797368365,0.708382811317,0.0,0.0,0.0,0.0,0.0,0.0,0.0,0.0,0.0,-0.000298,0.000291,-0.0009,0.0,0.0,0.0,0.0,0.0,0.0,0.0,0.0,0.0,-0.094,-0.104,-9.596,0.0,0.0,0.0,0.0,0.0,0.0,0.0,0.0,0.0
1581281144148992382,31,1581281144148229598,imu,0.00661546770227,0.000320977824859,0.705797368365,0.708382811317,0.0,0.0,0.0,0.0,0.0,0.0,0.0,0.0,0.0,0.00026,-0.000792,0.0001,0.0,0.0,0.0,0.0,0.0,0.0,0.0,0.0,0.0,-0.082,-0.095,-9.581,0.0,0.0,0.0,0.0,0.0,0.0,0.0,0.0,0.0
1581281144174185349,32,1581281144173103332,imu,0.00662165236279,0.000327079284006,0.705791183704,0.708388912777,0.0,0.0,0.0,0.0,0.0,0.0,0.0,0.0,0.0,0.00051,-0.001847,0.0002,0.0,0.0,0.0,0.0,0.0,0.0,0.0,0.0,0.0,-0.114,-0.079,-9.593,0.0,0.0,0.0,0.0,0.0,0.0,0.0,0.0,0.0
1581281144200059917,33,1581281144198096275,imu,0.00662779103486,0.000308497998003,0.705785010568,0.708395014149,0.0,0.0,0.0,0.0,0.0,0.0,0.0,0.0,0.0,0.000553,-0.001769,0.0001,0.0,0.0,0.0,0.0,0.0,0.0,0.0,0.0,0.0,-0.095,-0.067,-9.58,0.0,0.0,0.0,0.0,0.0,0.0,0.0,0.0,0.0
1581281144223888540,34,1581281144223127365,imu,0.00661545025591,0.000308521044463,0.705785010353,0.708395129708,0.0,0.0,0.0,0.0,0.0,0.0,0.0,0.0,0.0,-0.001061,0.000553,0.0005,0.0,0.0,0.0,0.0,0.0,0.0,0.0,0.0,0.0,-0.082,-0.105,-9.589,0.0,0.0,0.0,0.0,0.0,0.0,0.0,0.0,0.0
1581281144248966343,35,1581281144248131513,imu,0.00662163216937,0.000314680180572,0.705785007633,0.70839507195,0.0,0.0,0.0,0.0,0.0,0.0,0.0,0.0,0.0,0.000192,0.001119,-0.0009,0.0,0.0,0.0,0.0,0.0,0.0,0.0,0.0,0.0,-0.091,-0.104,-9.579,0.0,0.0,0.0,0.0,0.0,0.0,0.0,0.0,0.0
1581281144273993052,36,1581281144273082971,imu,0.00664631646867,0.000314576087619,0.705778826128,0.708400999512,0.0,0.0,0.0,0.0,0.0,0.0,0.0,0.0,0.0,0.001266,0.000345,-0.0004,0.0,0.0,0.0,0.0,0.0,0.0,0.0,0.0,0.0,-0.084,-0.092,-9.63,0.0,0.0,0.0,0.0,0.0,0.0,0.0,0.0,0.0
1581281144298735328,37,1581281144297931194,imu,0.00664631921361,0.000314518087554,0.705772644136,0.708407158567,0.0,0.0,0.0,0.0,0.0,0.0,0.0,0.0,0.0,0.000531,-0.000348,0.001,0.0,0.0,0.0,0.0,0.0,0.0,0.0,0.0,0.0,-0.113,-0.106,-9.615,0.0,0.0,0.0,0.0,0.0,0.0,0.0,0.0,0.0
1581281144323822946,38,1581281144323057413,imu,0.00663400170096,0.000326882667595,0.705772638102,0.708407274437,0.0,0.0,0.0,0.0,0.0,0.0,0.0,0.0,0.0,0.000466,-0.000494,0.0001,0.0,0.0,0.0,0.0,0.0,0.0,0.0,0.0,0.0,-0.08,-0.095,-9.612,0.0,0.0,0.0,0.0,0.0,0.0,0.0,0.0,0.0
1581281144348795691,39,1581281144347994327,imu,0.00664016045754,0.000320700377587,0.705772641146,0.708407216529,0.0,0.0,0.0,0.0,0.0,0.0,0.0,0.0,0.0,-0.000273,0.000732,0.0003,0.0,0.0,0.0,0.0,0.0,0.0,0.0,0.0,0.0,-0.075,-0.094,-9.607,0.0,0.0,0.0,0.0,0.0,0.0,0.0,0.0,0.0
1581281144375183204,40,1581281144372946977,imu,0.0066525244949,0.000333018433896,0.705772635441,0.708407100529,0.0,0.0,0.0,0.0,0.0,0.0,0.0,0.0,0.0,-0.000921,2e-05,0.0014,0.0,0.0,0.0,0.0,0.0,0.0,0.0,0.0,0.0,-0.099,-0.092,-9.632,0.0,0.0,0.0,0.0,0.0,0.0,0.0,0.0,0.0
1581281144398734837,41,1581281144397855758,imu,0.00665252740078,0.000332960379656,0.705766453396,0.70841325953,0.0,0.0,0.0,0.0,0.0,0.0,0.0,0.0,0.0,-0.000142,-0.000519,-0.0003,0.0,0.0,0.0,0.0,0.0,0.0,0.0,0.0,0.0,-0.083,-0.067,-9.57,0.0,0.0,0.0,0.0,0.0,0.0,0.0,0.0,0.0
1581281144424351267,42,1581281144423569679,imu,0.00664634818023,0.000326743405145,0.705760274175,0.708419476504,0.0,0.0,0.0,0.0,0.0,0.0,0.0,0.0,0.0,0.000105,0.00029,-0.0006,0.0,0.0,0.0,0.0,0.0,0.0,0.0,0.0,0.0,-0.085,-0.131,-9.607,0.0,0.0,0.0,0.0,0.0,0.0,0.0,0.0,0.0
1581281144448893309,43,1581281144447991847,imu,0.00664020999705,0.000345325067028,0.705766447038,0.708413375507,0.0,0.0,0.0,0.0,0.0,0.0,0.0,0.0,0.0,0.000453,-0.000108,0.0,0.0,0.0,0.0,0.0,0.0,0.0,0.0,0.0,0.0,-0.069,-0.097,-9.616,0.0,0.0,0.0,0.0,0.0,0.0,0.0,0.0,0.0
1581281144474483020,44,1581281144473598718,imu,0.00664637165849,0.000339084722833,0.705760268144,0.708419476493,0.0,0.0,0.0,0.0,0.0,0.0,0.0,0.0,0.0,-0.000148,-0.0003,-0.0007,0.0,0.0,0.0,0.0,0.0,0.0,0.0,0.0,0.0,-0.086,-0.095,-9.596,0.0,0.0,0.0,0.0,0.0,0.0,0.0,0.0,0.0
1581281144498697649,45,1581281144497876167,imu,0.00666489455648,0.000345220165802,0.705760265379,0.70841930226,0.0,0.0,0.0,0.0,0.0,0.0,0.0,0.0,0.0,0.000404,-0.001788,-0.001,0.0,0.0,0.0,0.0,0.0,0.0,0.0,0.0,0.0,-0.089,-0.099,-9.572,0.0,0.0,0.0,0.0,0.0,0.0,0.0,0.0,0.0
1581281144524308574,46,1581281144523537397,imu,0.0066710502437,0.000339095984296,0.705766450684,0.708413085136,0.0,0.0,0.0,0.0,0.0,0.0,0.0,0.0,0.0,0.001367,-0.000727,0.0005,0.0,0.0,0.0,0.0,0.0,0.0,0.0,0.0,0.0,-0.073,-0.101,-9.593,0.0,0.0,0.0,0.0,0.0,0.0,0.0,0.0,0.0
1581281144549362646,47,1581281144548419237,imu,0.00665871243157,0.000339061245609,0.705760268365,0.708419360396,0.0,0.0,0.0,0.0,0.0,0.0,0.0,0.0,0.0,-0.00084,0.000308,0.0004,0.0,0.0,0.0,0.0,0.0,0.0,0.0,0.0,0.0,-0.092,-0.091,-9.599,0.0,0.0,0.0,0.0,0.0,0.0,0.0,0.0,0.0
1581281144574528689,48,1581281144573517560,imu,0.00665871243157,0.000339061245609,0.705760268365,0.708419360396,0.0,0.0,0.0,0.0,0.0,0.0,0.0,0.0,0.0,0.00024,-0.001999,0.0003,0.0,0.0,0.0,0.0,0.0,0.0,0.0,0.0,0.0,-0.096,-0.098,-9.575,0.0,0.0,0.0,0.0,0.0,0.0,0.0,0.0,0.0
1581281144599494834,49,1581281144598474502,imu,0.00668334975792,0.000314273332474,0.705754098505,0.708425286471,0.0,0.0,0.0,0.0,0.0,0.0,0.0,0.0,0.0,-0.000868,-0.00171,0.001,0.0,0.0,0.0,0.0,0.0,0.0,0.0,0.0,0.0,-0.088,-0.076,-9.588,0.0,0.0,0.0,0.0,0.0,0.0,0.0,0.0,0.0
1581281144624231754,50,1581281144623511552,imu,0.00668332090123,0.000302048660788,0.705766468352,0.708412968641,0.0,0.0,0.0,0.0,0.0,0.0,0.0,0.0,0.0,-2.5e-05,-0.000908,-0.0007,0.0,0.0,0.0,0.0,0.0,0.0,0.0,0.0,0.0,-0.095,-0.096,-9.611,0.0,0.0,0.0,0.0,0.0,0.0,0.0,0.0,0.0
1581281144649354434,51,1581281144648435115,imu,0.0066894795998,0.000295866316944,0.705766471181,0.708412910302,0.0,0.0,0.0,0.0,0.0,0.0,0.0,0.0,0.0,-0.000289,-0.00074,-0.0,0.0,0.0,0.0,0.0,0.0,0.0,0.0,0.0,0.0,-0.074,-0.1,-9.608,0.0,0.0,0.0,0.0,0.0,0.0,0.0,0.0,0.0
1581281144674763502,52,1581281144673477172,imu,0.00667713366633,0.000296006224477,0.705778834993,0.708400708881,0.0,0.0,0.0,0.0,0.0,0.0,0.0,0.0,0.0,0.000439,9.9e-05,0.0007,0.0,0.0,0.0,0.0,0.0,0.0,0.0,0.0,0.0,-0.078,-0.097,-9.57,0.0,0.0,0.0,0.0,0.0,0.0,0.0,0.0,0.0
1581281144699099627,53,1581281144698383569,imu,0.00668329500224,0.000289765665359,0.705772655779,0.70840680965,0.0,0.0,0.0,0.0,0.0,0.0,0.0,0.0,0.0,-0.000657,-0.000734,0.0,0.0,0.0,0.0,0.0,0.0,0.0,0.0,0.0,0.0,-0.083,-0.1,-9.583,0.0,0.0,0.0,0.0,0.0,0.0,0.0,0.0,0.0
1581281144724226847,54,1581281144723442792,imu,0.00668327173938,0.000277424346872,0.705772660948,0.70840680966,0.0,0.0,0.0,0.0,0.0,0.0,0.0,0.0,0.0,-0.00036,0.00088,0.0003,0.0,0.0,0.0,0.0,0.0,0.0,0.0,0.0,0.0,-0.088,-0.102,-9.583,0.0,0.0,0.0,0.0,0.0,0.0,0.0,0.0,0.0
1581281144749501007,55,1581281144748366594,imu,0.00668945375476,0.000283583375213,0.705772658501,0.70840675131,0.0,0.0,0.0,0.0,0.0,0.0,0.0,0.0,0.0,-0.000666,-0.000267,0.0011,0.0,0.0,0.0,0.0,0.0,0.0,0.0,0.0,0.0,-0.075,-0.094,-9.597,0.0,0.0,0.0,0.0,0.0,0.0,0.0,0.0,0.0
1581281144774247548,56,1581281144773442983,imu,0.00670181520151,0.000295959916212,0.705778835431,0.708400475394,0.0,0.0,0.0,0.0,0.0,0.0,0.0,0.0,0.0,-0.000214,-0.001022,-0.0007,0.0,0.0,0.0,0.0,0.0,0.0,0.0,0.0,0.0,-0.086,-0.095,-9.585,0.0,0.0,0.0,0.0,0.0,0.0,0.0,0.0,0.0
1581281144799082849,57,1581281144798305749,imu,0.00667711051116,0.000283664905833,0.70577884027,0.70840070889,0.0,0.0,0.0,0.0,0.0,0.0,0.0,0.0,0.0,-0.001433,-0.000816,0.0002,0.0,0.0,0.0,0.0,0.0,0.0,0.0,0.0,0.0,-0.087,-0.119,-9.594,0.0,0.0,0.0,0.0,0.0,0.0,0.0,0.0,0.0
1581281144824114953,58,1581281144823379278,imu,0.00670178461893,0.000283794049976,0.705797386347,0.708381997914,0.0,0.0,0.0,0.0,0.0,0.0,0.0,0.0,0.0,0.001191,-0.00116,0.0001,0.0,0.0,0.0,0.0,0.0,0.0,0.0,0.0,0.0,-0.083,-0.094,-9.596,0.0,0.0,0.0,0.0,0.0,0.0,0.0,0.0,0.0
1581281144848820260,59,1581281144848280668,imu,0.00670796388721,0.000290011832126,0.705803565616,0.708375780132,0.0,0.0,0.0,0.0,0.0,0.0,0.0,0.0,0.0,0.000378,-2.7e-05,0.0006,0.0,0.0,0.0,0.0,0.0,0.0,0.0,0.0,0.0,-0.074,-0.084,-9.614,0.0,0.0,0.0,0.0,0.0,0.0,0.0,0.0,0.0
1581281144874518415,60,1581281144873420000,imu,0.00670794116284,0.000277670512636,0.705803570785,0.708375780142,0.0,0.0,0.0,0.0,0.0,0.0,0.0,0.0,0.0,-0.000729,-0.001486,0.0006,0.0,0.0,0.0,0.0,0.0,0.0,0.0,0.0,0.0,-0.07,-0.089,-9.616,0.0,0.0,0.0,0.0,0.0,0.0,0.0,0.0,0.0
1581281144899142891,61,1581281144898323059,imu,0.00672025920278,0.000265306469706,0.705803575955,0.708375662977,0.0,0.0,0.0,0.0,0.0,0.0,0.0,0.0,0.0,0.000598,-0.000454,-0.0011,0.0,0.0,0.0,0.0,0.0,0.0,0.0,0.0,0.0,-0.057,-0.107,-9.568,0.0,0.0,0.0,0.0,0.0,0.0,0.0,0.0,0.0
1581281144924144784,62,1581281144923353910,imu,0.00670794116284,0.000277670512636,0.705803570785,0.708375780142,0.0,0.0,0.0,0.0,0.0,0.0,0.0,0.0,0.0,-0.000498,0.001296,0.0011,0.0,0.0,0.0,0.0,0.0,0.0,0.0,0.0,0.0,-0.076,-0.094,-9.575,0.0,0.0,0.0,0.0,0.0,0.0,0.0,0.0,0.0
1581281144949113753,63,1581281144948352098,imu,0.00672026151775,0.000265247824371,0.705797394184,0.708381822248,0.0,0.0,0.0,0.0,0.0,0.0,0.0,0.0,0.0,-2e-06,0.000739,0.0001,0.0,0.0,0.0,0.0,0.0,0.0,0.0,0.0,0.0,-0.089,-0.096,-9.597,0.0,0.0,0.0,0.0,0.0,0.0,0.0,0.0,0.0
1581281144973981297,64,1581281144973306655,imu,0.00671410255199,0.000271429899594,0.705797391626,0.708381880857,0.0,0.0,0.0,0.0,0.0,0.0,0.0,0.0,0.0,-0.001084,0.000321,-0.0002,0.0,0.0,0.0,0.0,0.0,0.0,0.0,0.0,0.0,-0.066,-0.107,-9.599,0.0,0.0,0.0,0.0,0.0,0.0,0.0,0.0,0.0
1581281144999149200,65,1581281144998265743,imu,0.00670176652358,0.00027133576279,0.705785027703,0.708394316304,0.0,0.0,0.0,0.0,0.0,0.0,0.0,0.0,0.0,-0.000322,-0.000515,-0.0012,0.0,0.0,0.0,0.0,0.0,0.0,0.0,0.0,0.0,-0.072,-0.085,-9.61,0.0,0.0,0.0,0.0,0.0,0.0,0.0,0.0,0.0
1581281145024125543,66,1581281145023278474,imu,0.00670792769612,0.00026509504237,0.70577884833,0.708400416912,0.0,0.0,0.0,0.0,0.0,0.0,0.0,0.0,0.0,0.001167,-0.001185,-0.0,0.0,0.0,0.0,0.0,0.0,0.0,0.0,0.0,0.0,-0.087,-0.111,-9.62,0.0,0.0,0.0,0.0,0.0,0.0,0.0,0.0,0.0
1581281145049083294,67,1581281145048217058,imu,0.00671411202259,0.000271195533037,0.705772664003,0.708406517402,0.0,0.0,0.0,0.0,0.0,0.0,0.0,0.0,0.0,-0.000723,0.000339,0.0008,0.0,0.0,0.0,0.0,0.0,0.0,0.0,0.0,0.0,-0.087,-0.081,-9.596,0.0,0.0,0.0,0.0,0.0,0.0,0.0,0.0,0.0
1581281145074300314,68,1581281145073251008,imu,0.00670793000925,0.000265036504648,0.705772666343,0.708406575967,0.0,0.0,0.0,0.0,0.0,0.0,0.0,0.0,0.0,-0.000757,0.001225,0.0006,0.0,0.0,0.0,0.0,0.0,0.0,0.0,0.0,0.0,-0.068,-0.095,-9.564,0.0,0.0,0.0,0.0,0.0,0.0,0.0,0.0,0.0
1581281145099011039,69,1581281145098207235,imu,0.00668945622924,0.000283524998706,0.705766476459,0.708412910312,0.0,0.0,0.0,0.0,0.0,0.0,0.0,0.0,0.0,-0.000104,0.001879,-0.0003,0.0,0.0,0.0,0.0,0.0,0.0,0.0,0.0,0.0,-0.078,-0.099,-9.616,0.0,0.0,0.0,0.0,0.0,0.0,0.0,0.0,0.0
1581281145124036789,70,1581281145123144149,imu,0.00668945375476,0.000283583375213,0.705772658501,0.70840675131,0.0,0.0,0.0,0.0,0.0,0.0,0.0,0.0,0.0,-0.000306,0.000888,0.0003,0.0,0.0,0.0,0.0,0.0,0.0,0.0,0.0,0.0,-0.071,-0.1,-9.568,0.0,0.0,0.0,0.0,0.0,0.0,0.0,0.0,0.0
1581281145149018778,71,1581281145148194074,imu,0.00668329247331,0.000289823988099,0.705778837768,0.708400650595,0.0,0.0,0.0,0.0,0.0,0.0,0.0,0.0,0.0,1e-06,-0.001236,0.0001,0.0,0.0,0.0,0.0,0.0,0.0,0.0,0.0,0.0,-0.075,-0.085,-9.603,0.0,0.0,0.0,0.0,0.0,0.0,0.0,0.0,0.0
1581281145173975315,72,1581281145173189640,imu,0.00667711298635,0.000283606637041,0.705772658281,0.708406867946,0.0,0.0,0.0,0.0,0.0,0.0,0.0,0.0,0.0,0.000239,0.000245,0.0012,0.0,0.0,0.0,0.0,0.0,0.0,0.0,0.0,0.0,-0.057,-0.082,-9.592,0.0,0.0,0.0,0.0,0.0,0.0,0.0,0.0,0.0
1581281145198897696,73,1581281145198095083,imu,0.00667095423282,0.000289788927189,0.705772655559,0.708406926178,0.0,0.0,0.0,0.0,0.0,0.0,0.0,0.0,0.0,0.001698,0.000247,0.0003,0.0,0.0,0.0,0.0,0.0,0.0,0.0,0.0,0.0,-0.09,-0.074,-9.578,0.0,0.0,0.0,0.0,0.0,0.0,0.0,0.0,0.0
1581281145223800774,74,1581281145223062753,imu,0.00667711298635,0.000283606637041,0.705772658281,0.708406867946,0.0,0.0,0.0,0.0,0.0,0.0,0.0,0.0,0.0,0.001229,0.00076,0.001,0.0,0.0,0.0,0.0,0.0,0.0,0.0,0.0,0.0,-0.084,-0.086,-9.605,0.0,0.0,0.0,0.0,0.0,0.0,0.0,0.0,0.0
1581281145248781983,75,1581281145248075008,imu,0.00666474895305,0.000271288580341,0.705772663123,0.708406984375,0.0,0.0,0.0,0.0,0.0,0.0,0.0,0.0,0.0,-0.000592,-0.000132,0.0013,0.0,0.0,0.0,0.0,0.0,0.0,0.0,0.0,0.0,-0.071,-0.11,-9.61,0.0,0.0,0.0,0.0,0.0,0.0,0.0,0.0,0.0
1581281145273625893,76,1581281145273010015,imu,0.00665243144344,0.000283653160708,0.705772657842,0.708407100571,0.0,0.0,0.0,0.0,0.0,0.0,0.0,0.0,0.0,-0.001189,-0.00029,0.0019,0.0,0.0,0.0,0.0,0.0,0.0,0.0,0.0,0.0,-0.086,-0.075,-9.607,0.0,0.0,0.0,0.0,0.0,0.0,0.0,0.0,0.0
1581281145298590322,77,1581281145297952651,imu,0.00665243391853,0.000283595107282,0.705766475797,0.708413259572,0.0,0.0,0.0,0.0,0.0,0.0,0.0,0.0,0.0,-0.000402,0.001943,-0.0007,0.0,0.0,0.0,0.0,0.0,0.0,0.0,0.0,0.0,-0.065,-0.097,-9.592,0.0,0.0,0.0,0.0,0.0,0.0,0.0,0.0,0.0
1581281145324051780,78,1581281145323106050,imu,0.00665245987137,0.000295878371867,0.705760288421,0.708419418509,0.0,0.0,0.0,0.0,0.0,0.0,0.0,0.0,0.0,0.00072,-0.00037,0.0009,0.0,0.0,0.0,0.0,0.0,0.0,0.0,0.0,0.0,-0.059,-0.094,-9.602,0.0,0.0,0.0,0.0,0.0,0.0,0.0,0.0,0.0
1581281145348594491,79,1581281145347958803,imu,0.00662161967149,0.000302107723923,0.705760285151,0.708419708074,0.0,0.0,0.0,0.0,0.0,0.0,0.0,0.0,0.0,-0.001324,0.001367,0.0005,0.0,0.0,0.0,0.0,0.0,0.0,0.0,0.0,0.0,-0.065,-0.093,-9.562,0.0,0.0,0.0,0.0,0.0,0.0,0.0,0.0,0.0
1581281145374525071,80,1581281145373699426,imu,0.00662779910904,0.000308324482734,0.705766464589,0.708413491315,0.0,0.0,0.0,0.0,0.0,0.0,0.0,0.0,0.0,-0.000136,-0.000117,-0.0005,0.0,0.0,0.0,0.0,0.0,0.0,0.0,0.0,0.0,-0.068,-0.101,-9.588,0.0,0.0,0.0,0.0,0.0,0.0,0.0,0.0,0.0
1581281145398729803,81,1581281145397934436,imu,0.00662163766057,0.000314564611241,0.7057726437,0.708407390115,0.0,0.0,0.0,0.0,0.0,0.0,0.0,0.0,0.0,0.000644,0.000528,-0.0007,0.0,0.0,0.0,0.0,0.0,0.0,0.0,0.0,0.0,-0.094,-0.13,-9.607,0.0,0.0,0.0,0.0,0.0,0.0,0.0,0.0,0.0
1581281145424878885,82,1581281145423643589,imu,0.00661548170127,0.000320689170321,0.705766458662,0.708413606863,0.0,0.0,0.0,0.0,0.0,0.0,0.0,0.0,0.0,-0.000718,-0.000211,-0.0015,0.0,0.0,0.0,0.0,0.0,0.0,0.0,0.0,0.0,-0.094,-0.079,-9.601,0.0,0.0,0.0,0.0,0.0,0.0,0.0,0.0,0.0
1581281145448545194,83,1581281145447971820,imu,0.00662164314975,0.000314449041814,0.705760279551,0.708419708063,0.0,0.0,0.0,0.0,0.0,0.0,0.0,0.0,0.0,0.001178,-0.000824,0.0005,0.0,0.0,0.0,0.0,0.0,0.0,0.0,0.0,0.0,-0.088,-0.102,-9.574,0.0,0.0,0.0,0.0,0.0,0.0,0.0,0.0,0.0
1581281145474116748,84,1581281145473564863,imu,0.0066154610213,0.000308290121498,0.705760282268,0.708419765821,0.0,0.0,0.0,0.0,0.0,0.0,0.0,0.0,0.0,-0.000532,0.001312,0.0002,0.0,0.0,0.0,0.0,0.0,0.0,0.0,0.0,0.0,-0.084,-0.094,-9.604,0.0,0.0,0.0,0.0,0.0,0.0,0.0,0.0,0.0
1581281145499494564,85,1581281145497804403,imu,0.00662164314975,0.000314449041814,0.705760279551,0.708419708063,0.0,0.0,0.0,0.0,0.0,0.0,0.0,0.0,0.0,0.001427,0.002509,0.0002,0.0,0.0,0.0,0.0,0.0,0.0,0.0,0.0,0.0,-0.089,-0.094,-9.588,0.0,0.0,0.0,0.0,0.0,0.0,0.0,0.0,0.0
1581281145524295466,86,1581281145523566246,imu,0.00662163766057,0.000314564611241,0.7057726437,0.708407390115,0.0,0.0,0.0,0.0,0.0,0.0,0.0,0.0,0.0,-0.000479,-0.000987,0.0006,0.0,0.0,0.0,0.0,0.0,0.0,0.0,0.0,0.0,-0.082,-0.099,-9.578,0.0,0.0,0.0,0.0,0.0,0.0,0.0,0.0,0.0
1581281145549870903,87,1581281145547813653,imu,0.00662163766057,0.000314564611241,0.7057726437,0.708407390115,0.0,0.0,0.0,0.0,0.0,0.0,0.0,0.0,0.0,0.000348,0.000537,0.0001,0.0,0.0,0.0,0.0,0.0,0.0,0.0,0.0,0.0,-0.076,-0.1,-9.583,0.0,0.0,0.0,0.0,0.0,0.0,0.0,0.0,0.0
1581281145574428335,88,1581281145573606252,imu,0.00659695609946,0.000314611134943,0.705772643265,0.708407620801,0.0,0.0,0.0,0.0,0.0,0.0,0.0,0.0,0.0,-0.001275,0.001902,0.0004,0.0,0.0,0.0,0.0,0.0,0.0,0.0,0.0,0.0,-0.1,-0.095,-9.606,0.0,0.0,0.0,0.0,0.0,0.0,0.0,0.0,0.0
1581281145599290321,89,1581281145598458766,imu,0.00659695335371,0.000314668704233,0.705778825261,0.708401461746,0.0,0.0,0.0,0.0,0.0,0.0,0.0,0.0,0.0,0.000204,-0.000845,0.0004,0.0,0.0,0.0,0.0,0.0,0.0,0.0,0.0,0.0,-0.089,-0.098,-9.572,0.0,0.0,0.0,0.0,0.0,0.0,0.0,0.0,0.0
1581281145624333470,90,1581281145623491287,imu,0.00660311485906,0.000308428844878,0.7057726462,0.708407563216,0.0,0.0,0.0,0.0,0.0,0.0,0.0,0.0,0.0,-8.4e-05,-0.001804,-0.0002,0.0,0.0,0.0,0.0,0.0,0.0,0.0,0.0,0.0,-0.077,-0.09,-9.632,0.0,0.0,0.0,0.0,0.0,0.0,0.0,0.0,0.0
1581281145650698592,91,1581281145648391246,imu,0.0065969328366,0.000302269816643,0.705772648865,0.708407620812,0.0,0.0,0.0,0.0,0.0,0.0,0.0,0.0,0.0,-0.00069,0.001237,0.0007,0.0,0.0,0.0,0.0,0.0,0.0,0.0,0.0,0.0,-0.098,-0.09,-9.584,0.0,0.0,0.0,0.0,0.0,0.0,0.0,0.0,0.0
1581281145674453915,92,1581281145673486232,imu,0.00659695335371,0.000314668704233,0.705778825261,0.708401461746,0.0,0.0,0.0,0.0,0.0,0.0,0.0,0.0,0.0,0.001783,0.000551,-0.0008,0.0,0.0,0.0,0.0,0.0,0.0,0.0,0.0,0.0,-0.089,-0.086,-9.553,0.0,0.0,0.0,0.0,0.0,0.0,0.0,0.0,0.0
1581281145699431101,93,1581281145698466300,imu,0.00659695335371,0.000314668704233,0.705778825261,0.708401461746,0.0,0.0,0.0,0.0,0.0,0.0,0.0,0.0,0.0,-5.3e-05,-0.00024,0.0004,0.0,0.0,0.0,0.0,0.0,0.0,0.0,0.0,0.0,-0.108,-0.101,-9.633,0.0,0.0,0.0,0.0,0.0,0.0,0.0,0.0,0.0
1581281145724501999,94,1581281145723597049,imu,0.00660308901209,0.000296145149364,0.705778833688,0.708401404171,0.0,0.0,0.0,0.0,0.0,0.0,0.0,0.0,0.0,-0.000295,-0.000963,-0.0005,0.0,0.0,0.0,0.0,0.0,0.0,0.0,0.0,0.0,-0.088,-0.107,-9.588,0.0,0.0,0.0,0.0,0.0,0.0,0.0,0.0,0.0
1581281145749135695,95,1581281145748366832,imu,0.00659693019854,0.000302327385731,0.705778830861,0.708401461757,0.0,0.0,0.0,0.0,0.0,0.0,0.0,0.0,0.0,0.00014,0.000264,0.0003,0.0,0.0,0.0,0.0,0.0,0.0,0.0,0.0,0.0,-0.08,-0.078,-9.618,0.0,0.0,0.0,0.0,0.0,0.0,0.0,0.0,0.0
1581281145774187617,96,1581281145773413181,imu,0.00660308901209,0.000296145149364,0.705778833688,0.708401404171,0.0,0.0,0.0,0.0,0.0,0.0,0.0,0.0,0.0,-0.001076,-0.000293,0.0003,0.0,0.0,0.0,0.0,0.0,0.0,0.0,0.0,0.0,-0.081,-0.091,-9.601,0.0,0.0,0.0,0.0,0.0,0.0,0.0,0.0,0.0
1581281145799315591,97,1581281145798396587,imu,0.00659693019854,0.000302327385731,0.705778830861,0.708401461757,0.0,0.0,0.0,0.0,0.0,0.0,0.0,0.0,0.0,5.8e-05,6.3e-05,0.0002,0.0,0.0,0.0,0.0,0.0,0.0,0.0,0.0,0.0,-0.065,-0.09,-9.586,0.0,0.0,0.0,0.0,0.0,0.0,0.0,0.0,0.0
1581281145824230204,98,1581281145823426246,imu,0.00660308901209,0.000296145149364,0.705778833688,0.708401404171,0.0,0.0,0.0,0.0,0.0,0.0,0.0,0.0,0.0,-8e-06,0.00058,-0.001,0.0,0.0,0.0,0.0,0.0,0.0,0.0,0.0,0.0,-0.079,-0.103,-9.578,0.0,0.0,0.0,0.0,0.0,0.0,0.0,0.0,0.0
1581281145849320647,99,1581281145848268985,imu,0.00660306338002,0.000283861453329,0.705785020907,0.708395245071,0.0,0.0,0.0,0.0,0.0,0.0,0.0,0.0,0.0,-0.000553,0.000751,0.0003,0.0,0.0,0.0,0.0,0.0,0.0,0.0,0.0,0.0,-0.094,-0.058,-9.585,0.0,0.0,0.0,0.0,0.0,0.0,0.0,0.0,0.0
1581281145874540909,100,1581281145873469114,imu,0.00659688388821,0.000277644748444,0.705778841415,0.708401461776,0.0,0.0,0.0,0.0,0.0,0.0,0.0,0.0,0.0,0.00133,-0.000406,0.0007,0.0,0.0,0.0,0.0,0.0,0.0,0.0,0.0,0.0,-0.05,-0.092,-9.602,0.0,0.0,0.0,0.0,0.0,0.0,0.0,0.0,0.0
1581281145899186810,101,1581281145898369312,imu,0.00660304033255,0.000271520134393,0.705785025969,0.708395245081,0.0,0.0,0.0,0.0,0.0,0.0,0.0,0.0,0.0,0.000501,0.000634,-0.0,0.0,0.0,0.0,0.0,0.0,0.0,0.0,0.0,0.0,-0.071,-0.086,-9.601,0.0,0.0,0.0,0.0,0.0,0.0,0.0,0.0,0.0
1581281145924210931,102,1581281145923359632,imu,0.00657836113422,0.000271508820311,0.705778843596,0.70840163423,0.0,0.0,0.0,0.0,0.0,0.0,0.0,0.0,0.0,-0.001544,-0.000428,0.0003,0.0,0.0,0.0,0.0,0.0,0.0,0.0,0.0,0.0,-0.08,-0.097,-9.614,0.0,0.0,0.0,0.0,0.0,0.0,0.0,0.0,0.0
1581281145949299902,103,1581281145948344469,imu,0.00657840744455,0.00029619145769,0.705778833257,0.708401634211,0.0,0.0,0.0,0.0,0.0,0.0,0.0,0.0,0.0,-0.000838,0.000404,0.0004,0.0,0.0,0.0,0.0,0.0,0.0,0.0,0.0,0.0,-0.081,-0.101,-9.611,0.0,0.0,0.0,0.0,0.0,0.0,0.0,0.0,0.0
1581281145974040166,104,1581281145973247289,imu,0.00656606924248,0.000296157312106,0.705772651043,0.708407907963,0.0,0.0,0.0,0.0,0.0,0.0,0.0,0.0,0.0,-0.000827,0.000973,-0.0004,0.0,0.0,0.0,0.0,0.0,0.0,0.0,0.0,0.0,-0.098,-0.104,-9.609,0.0,0.0,0.0,0.0,0.0,0.0,0.0,0.0,0.0
1581281145998909854,105,1581281145998222112,imu,0.00655370271383,0.000283896447386,0.705778838104,0.7084018634,0.0,0.0,0.0,0.0,0.0,0.0,0.0,0.0,0.0,-0.001622,-0.001322,0.0002,0.0,0.0,0.0,0.0,0.0,0.0,0.0,0.0,0.0,-0.086,-0.086,-9.58,0.0,0.0,0.0,0.0,0.0,0.0,0.0,0.0,0.0
1581281146024118759,106,1581281146023312091,imu,0.00655370271383,0.000283896447386,0.705778838104,0.7084018634,0.0,0.0,0.0,0.0,0.0,0.0,0.0,0.0,0.0,-0.001313,0.001012,0.0011,0.0,0.0,0.0,0.0,0.0,0.0,0.0,0.0,0.0,-0.087,-0.069,-9.615,0.0,0.0,0.0,0.0,0.0,0.0,0.0,0.0,0.0
1581281146049282712,107,1581281146048241615,imu,0.00655985910712,0.000277771456524,0.705785022714,0.708395647081,0.0,0.0,0.0,0.0,0.0,0.0,0.0,0.0,0.0,0.000393,-0.000151,0.0007,0.0,0.0,0.0,0.0,0.0,0.0,0.0,0.0,0.0,-0.073,-0.097,-9.568,0.0,0.0,0.0,0.0,0.0,0.0,0.0,0.0,0.0
1581281146074034185,108,1581281146073222398,imu,0.00654753883245,0.000290192959962,0.705791199223,0.708389602283,0.0,0.0,0.0,0.0,0.0,0.0,0.0,0.0,0.0,0.000595,0.000609,0.0011,0.0,0.0,0.0,0.0,0.0,0.0,0.0,0.0,0.0,-0.08,-0.096,-9.576,0.0,0.0,0.0,0.0,0.0,0.0,0.0,0.0,0.0
1581281146098769711,109,1581281146098165035,imu,0.00654751589268,0.00027785164087,0.705791204393,0.708389602292,0.0,0.0,0.0,0.0,0.0,0.0,0.0,0.0,0.0,-0.001759,0.000242,0.0008,0.0,0.0,0.0,0.0,0.0,0.0,0.0,0.0,0.0,-0.081,-0.097,-9.607,0.0,0.0,0.0,0.0,0.0,0.0,0.0,0.0,0.0
1581281146123723875,110,1581281146123172521,imu,0.00654135944514,0.000283976685703,0.705785019836,0.708395818557,0.0,0.0,0.0,0.0,0.0,0.0,0.0,0.0,0.0,-0.000224,-0.00082,-0.0006,0.0,0.0,0.0,0.0,0.0,0.0,0.0,0.0,0.0,-0.1,-0.102,-9.634,0.0,0.0,0.0,0.0,0.0,0.0,0.0,0.0,0.0
1581281146148848471,111,1581281146148219347,imu,0.00653522889873,0.000302386125964,0.705772647785,0.708408193759,0.0,0.0,0.0,0.0,0.0,0.0,0.0,0.0,0.0,0.00017,0.000941,-0.0003,0.0,0.0,0.0,0.0,0.0,0.0,0.0,0.0,0.0,-0.07,-0.114,-9.627,0.0,0.0,0.0,0.0,0.0,0.0,0.0,0.0,0.0
1581281146173752729,112,1581281146173149585,imu,0.00654138766334,0.000296203835842,0.705772650612,0.708408136711,0.0,0.0,0.0,0.0,0.0,0.0,0.0,0.0,0.0,8.5e-05,-0.000132,0.0001,0.0,0.0,0.0,0.0,0.0,0.0,0.0,0.0,0.0,-0.066,-0.097,-9.595,0.0,0.0,0.0,0.0,0.0,0.0,0.0,0.0,0.0
1581281146198955034,113,1581281146198113441,imu,0.00655373103832,0.000296123381891,0.705766468774,0.708414181446,0.0,0.0,0.0,0.0,0.0,0.0,0.0,0.0,0.0,0.000444,-0.000221,0.0004,0.0,0.0,0.0,0.0,0.0,0.0,0.0,0.0,0.0,-0.091,-0.102,-9.593,0.0,0.0,0.0,0.0,0.0,0.0,0.0,0.0,0.0
1581281146223784582,114,1581281146223126173,imu,0.00655370271383,0.000283896447386,0.705778838104,0.7084018634,0.0,0.0,0.0,0.0,0.0,0.0,0.0,0.0,0.0,-0.000879,0.000286,-0.0002,0.0,0.0,0.0,0.0,0.0,0.0,0.0,0.0,0.0,-0.067,-0.12,-9.639,0.0,0.0,0.0,0.0,0.0,0.0,0.0,0.0,0.0
1581281146248770960,115,1581281146248119831,imu,0.00654754136461,0.000290135821896,0.705785017331,0.708395761446,0.0,0.0,0.0,0.0,0.0,0.0,0.0,0.0,0.0,-0.000574,0.000862,0.0004,0.0,0.0,0.0,0.0,0.0,0.0,0.0,0.0,0.0,-0.086,-0.105,-9.631,0.0,0.0,0.0,0.0,0.0,0.0,0.0,0.0,0.0
1581281146273891852,116,1581281146273094177,imu,0.00654756441208,0.000302477140695,0.705785011946,0.708395761436,0.0,0.0,0.0,0.0,0.0,0.0,0.0,0.0,0.0,0.00016,0.00027,-0.0005,0.0,0.0,0.0,0.0,0.0,0.0,0.0,0.0,0.0,-0.083,-0.07,-9.59,0.0,0.0,0.0,0.0,0.0,0.0,0.0,0.0,0.0
1581281146298841065,117,1581281146298052787,imu,0.00655987962263,0.000290170021176,0.705791199436,0.708389487909,0.0,0.0,0.0,0.0,0.0,0.0,0.0,0.0,0.0,-4.9e-05,-0.00183,0.0005,0.0,0.0,0.0,0.0,0.0,0.0,0.0,0.0,0.0,-0.094,-0.081,-9.594,0.0,0.0,0.0,0.0,0.0,0.0,0.0,0.0,0.0
1581281146324186908,118,1581281146323054313,imu,0.0065536977579,0.000284010831034,0.705791201941,0.708389545127,0.0,0.0,0.0,0.0,0.0,0.0,0.0,0.0,0.0,0.000826,0.000289,0.0002,0.0,0.0,0.0,0.0,0.0,0.0,0.0,0.0,0.0,-0.088,-0.099,-9.57,0.0,0.0,0.0,0.0,0.0,0.0,0.0,0.0,0.0
1581281146348890596,119,1581281146347966194,imu,0.0065536977579,0.000284010831034,0.705791201941,0.708389545127,0.0,0.0,0.0,0.0,0.0,0.0,0.0,0.0,0.0,5.8e-05,-0.000758,0.0005,0.0,0.0,0.0,0.0,0.0,0.0,0.0,0.0,0.0,-0.095,-0.1,-9.582,0.0,0.0,0.0,0.0,0.0,0.0,0.0,0.0,0.0
1581281146373688767,120,1581281146372903823,imu,0.00655367481813,0.000271669511897,0.705791207003,0.708389545137,0.0,0.0,0.0,0.0,0.0,0.0,0.0,0.0,0.0,-0.000168,-0.000128,0.0002,0.0,0.0,0.0,0.0,0.0,0.0,0.0,0.0,0.0,-0.087,-0.084,-9.618,0.0,0.0,0.0,0.0,0.0,0.0,0.0,0.0,0.0
1581281146398677178,121,1581281146397931337,imu,0.00655367718865,0.000271612320285,0.705785025111,0.7083957043,0.0,0.0,0.0,0.0,0.0,0.0,0.0,0.0,0.0,0.000504,-0.001049,-0.0001,0.0,0.0,0.0,0.0,0.0,0.0,0.0,0.0,0.0,-0.072,-0.101,-9.587,0.0,0.0,0.0,0.0,0.0,0.0,0.0,0.0,0.0
1581281146424488540,122,1581281146423678398,imu,0.00654133639767,0.000271635366767,0.705785024898,0.708395818566,0.0,0.0,0.0,0.0,0.0,0.0,0.0,0.0,0.0,-0.000691,-0.001377,0.0002,0.0,0.0,0.0,0.0,0.0,0.0,0.0,0.0,0.0,-0.085,-0.085,-9.603,0.0,0.0,0.0,0.0,0.0,0.0,0.0,0.0,0.0
1581281146448698937,123,1581281146447833061,imu,0.00654749295291,0.00026551032169,0.705791209347,0.708389602301,0.0,0.0,0.0,0.0,0.0,0.0,0.0,0.0,0.0,0.000374,-0.000341,0.0004,0.0,0.0,0.0,0.0,0.0,0.0,0.0,0.0,0.0,-0.074,-0.095,-9.6,0.0,0.0,0.0,0.0,0.0,0.0,0.0,0.0,0.0
1581281146474487270,124,1581281146473532199,imu,0.00654747222221,0.00025311186496,0.705785032193,0.708395761473,0.0,0.0,0.0,0.0,0.0,0.0,0.0,0.0,0.0,-2.2e-05,-0.002594,-0.0005,0.0,0.0,0.0,0.0,0.0,0.0,0.0,0.0,0.0,-0.082,-0.084,-9.593,0.0,0.0,0.0,0.0,0.0,0.0,0.0,0.0,0.0
1581281146498569101,125,1581281146497788906,imu,0.00655978996472,0.000240747499335,0.70578503693,0.708395647108,0.0,0.0,0.0,0.0,0.0,0.0,0.0,0.0,0.0,-0.000118,-0.002226,-0.0004,0.0,0.0,0.0,0.0,0.0,0.0,0.0,0.0,0.0,-0.079,-0.091,-9.587,0.0,0.0,0.0,0.0,0.0,0.0,0.0,0.0,0.0
1581281146524488686,126,1581281146523604631,imu,0.00655361009316,0.000234531171945,0.705778857059,0.708401863435,0.0,0.0,0.0,0.0,0.0,0.0,0.0,0.0,0.0,0.00069,-0.00108,-0.0004,0.0,0.0,0.0,0.0,0.0,0.0,0.0,0.0,0.0,-0.055,-0.088,-9.599,0.0,0.0,0.0,0.0,0.0,0.0,0.0,0.0,0.0
1581281146549323132,127,1581281146548535108,imu,0.00655358887672,0.000222132662044,0.70577267926,0.708408022499,0.0,0.0,0.0,0.0,0.0,0.0,0.0,0.0,0.0,-0.000225,-0.000487,0.0004,0.0,0.0,0.0,0.0,0.0,0.0,0.0,0.0,0.0,-0.094,-0.087,-9.622,0.0,0.0,0.0,0.0,0.0,0.0,0.0,0.0,0.0
1581281146574529290,128,1581281146573585748,imu,0.00655359275267,0.000222018280306,0.7057603151,0.708420340448,0.0,0.0,0.0,0.0,0.0,0.0,0.0,0.0,0.0,-0.000447,-0.001621,-0.0003,0.0,0.0,0.0,0.0,0.0,0.0,0.0,0.0,0.0,-0.069,-0.103,-9.62,0.0,0.0,0.0,0.0,0.0,0.0,0.0,0.0,0.0
1581281146599033246,129,1581281146598426103,imu,0.00656593160331,0.000222052101624,0.705766497423,0.708414067019,0.0,0.0,0.0,0.0,0.0,0.0,0.0,0.0,0.0,-0.000222,0.000743,0.0003,0.0,0.0,0.0,0.0,0.0,0.0,0.0,0.0,0.0,-0.07,-0.102,-9.585,0.0,0.0,0.0,0.0,0.0,0.0,0.0,0.0,0.0
1581281146624355593,130,1581281146623528718,imu,0.00658442921297,0.000215903847931,0.705772681819,0.708407735894,0.0,0.0,0.0,0.0,0.0,0.0,0.0,0.0,0.0,2e-05,-0.000366,0.001,0.0,0.0,0.0,0.0,0.0,0.0,0.0,0.0,0.0,-0.102,-0.061,-9.586,0.0,0.0,0.0,0.0,0.0,0.0,0.0,0.0,0.0
1581281146649234873,131,1581281146648450851,imu,0.00658440239627,0.000203677448502,0.705785049636,0.708395417737,0.0,0.0,0.0,0.0,0.0,0.0,0.0,0.0,0.0,-0.000526,-0.000226,0.0006,0.0,0.0,0.0,0.0,0.0,0.0,0.0,0.0,0.0,-0.094,-0.089,-9.584,0.0,0.0,0.0,0.0,0.0,0.0,0.0,0.0,0.0
1581281146674345969,132,1581281146673480749,imu,0.00659056126477,0.00019749526556,0.705785051602,0.708395360257,0.0,0.0,0.0,0.0,0.0,0.0,0.0,0.0,0.0,-0.000556,-0.000863,-0.0005,0.0,0.0,0.0,0.0,0.0,0.0,0.0,0.0,0.0,-0.098,-0.085,-9.602,0.0,0.0,0.0,0.0,0.0,0.0,0.0,0.0,0.0
1581281146699379629,133,1581281146698439121,imu,0.00657822047979,0.000197518312031,0.705785051387,0.708395475169,0.0,0.0,0.0,0.0,0.0,0.0,0.0,0.0,0.0,-0.000964,0.000565,-0.0,0.0,0.0,0.0,0.0,0.0,0.0,0.0,0.0,0.0,-0.076,-0.086,-9.608,0.0,0.0,0.0,0.0,0.0,0.0,0.0,0.0,0.0
1581281146724128779,134,1581281146723370790,imu,0.00659056126477,0.00019749526556,0.705785051602,0.708395360257,0.0,0.0,0.0,0.0,0.0,0.0,0.0,0.0,0.0,-0.000615,-0.0005,0.0008,0.0,0.0,0.0,0.0,0.0,0.0,0.0,0.0,0.0,-0.105,-0.101,-9.607,0.0,0.0,0.0,0.0,0.0,0.0,0.0,0.0,0.0
1581281146749269597,135,1581281146748383045,imu,0.00658439884042,0.000203792367972,0.705797413361,0.708383099356,0.0,0.0,0.0,0.0,0.0,0.0,0.0,0.0,0.0,0.000298,0.000975,0.0013,0.0,0.0,0.0,0.0,0.0,0.0,0.0,0.0,0.0,-0.067,-0.083,-9.594,0.0,0.0,0.0,0.0,0.0,0.0,0.0,0.0,0.0
1581281146774075392,136,1581281146773435115,imu,0.0065905560921,0.000197667805982,0.705803597107,0.708376882605,0.0,0.0,0.0,0.0,0.0,0.0,0.0,0.0,0.0,-0.001525,-0.001115,0.0006,0.0,0.0,0.0,0.0,0.0,0.0,0.0,0.0,0.0,-0.086,-0.096,-9.591,0.0,0.0,0.0,0.0,0.0,0.0,0.0,0.0,0.0
1581281146798854341,137,1581281146798280477,imu,0.00659671512195,0.000191485784266,0.705803599017,0.708376825071,0.0,0.0,0.0,0.0,0.0,0.0,0.0,0.0,0.0,-0.001304,-0.001239,-0.0011,0.0,0.0,0.0,0.0,0.0,0.0,0.0,0.0,0.0,-0.091,-0.066,-9.601,0.0,0.0,0.0,0.0,0.0,0.0,0.0,0.0,0.0
1581281146824336486,138,1581281146823467969,imu,0.00659053013216,0.000185441512399,0.705815964062,0.708364563907,0.0,0.0,0.0,0.0,0.0,0.0,0.0,0.0,0.0,-3e-05,0.001132,0.0017,0.0,0.0,0.0,0.0,0.0,0.0,0.0,0.0,0.0,-0.1,-0.076,-9.604,0.0,0.0,0.0,0.0,0.0,0.0,0.0,0.0,0.0
1581281146849005628,139,1581281146848254442,imu,0.00659669083399,0.000179202031168,0.70580978419,0.708370665752,0.0,0.0,0.0,0.0,0.0,0.0,0.0,0.0,0.0,-0.000261,-0.000446,-0.0002,0.0,0.0,0.0,0.0,0.0,0.0,0.0,0.0,0.0,-0.097,-0.084,-9.595,0.0,0.0,0.0,0.0,0.0,0.0,0.0,0.0,0.0
1581281146874014631,140,1581281146873433589,imu,0.00659668770532,0.000179317165115,0.705822147483,0.70835834694,0.0,0.0,0.0,0.0,0.0,0.0,0.0,0.0,0.0,-0.001002,-0.000675,0.0014,0.0,0.0,0.0,0.0,0.0,0.0,0.0,0.0,0.0,-0.063,-0.111,-9.582,0.0,0.0,0.0,0.0,0.0,0.0,0.0,0.0,0.0
1581281146900365497,141,1581281146898350954,imu,0.00659670676052,0.00019177362008,0.705834507115,0.708346027905,0.0,0.0,0.0,0.0,0.0,0.0,0.0,0.0,0.0,0.001124,0.000675,-0.0,0.0,0.0,0.0,0.0,0.0,0.0,0.0,0.0,0.0,-0.065,-0.09,-9.6,0.0,0.0,0.0,0.0,0.0,0.0,0.0,0.0,0.0
1581281146924155546,142,1581281146923336029,imu,0.00658436430099,0.000191853264425,0.705840688367,0.70833998333,0.0,0.0,0.0,0.0,0.0,0.0,0.0,0.0,0.0,-0.000714,-0.000629,0.0015,0.0,0.0,0.0,0.0,0.0,0.0,0.0,0.0,0.0,-0.105,-0.086,-9.602,0.0,0.0,0.0,0.0,0.0,0.0,0.0,0.0,0.0
1581281146949089444,143,1581281146948202848,imu,0.0065905457332,0.000198012886421,0.705840686666,0.708339925844,0.0,0.0,0.0,0.0,0.0,0.0,0.0,0.0,0.0,0.000207,0.000284,-0.0001,0.0,0.0,0.0,0.0,0.0,0.0,0.0,0.0,0.0,-0.097,-0.108,-9.601,0.0,0.0,0.0,0.0,0.0,0.0,0.0,0.0,0.0
1581281146974112308,144,1581281146973260879,imu,0.00659670341244,0.000191888754304,0.705846869978,0.708333708661,0.0,0.0,0.0,0.0,0.0,0.0,0.0,0.0,0.0,0.000188,-0.001026,-0.0009,0.0,0.0,0.0,0.0,0.0,0.0,0.0,0.0,0.0,-0.094,-0.084,-9.631,0.0,0.0,0.0,0.0,0.0,0.0,0.0,0.0,0.0
1581281146999177601,145,1581281146998177528,imu,0.00659051879189,0.000185844104629,0.705859234274,0.708321446741,0.0,0.0,0.0,0.0,0.0,0.0,0.0,0.0,0.0,-0.000284,0.000144,0.0028,0.0,0.0,0.0,0.0,0.0,0.0,0.0,0.0,0.0,-0.11,-0.112,-9.602,0.0,0.0,0.0,0.0,0.0,0.0,0.0,0.0,0.0
1581281147024006138,146,1581281147023236274,imu,0.00660288133229,0.000198163672294,0.705859230923,0.708321331607,0.0,0.0,0.0,0.0,0.0,0.0,0.0,0.0,0.0,-0.000314,8.3e-05,0.0005,0.0,0.0,0.0,0.0,0.0,0.0,0.0,0.0,0.0,-0.094,-0.099,-9.605,0.0,0.0,0.0,0.0,0.0,0.0,0.0,0.0,0.0
1581281147049048896,147,1581281147048206329,imu,0.00660286119856,0.000185764729659,0.705853053181,0.70832749137,0.0,0.0,0.0,0.0,0.0,0.0,0.0,0.0,0.0,-0.000996,0.00016,0.0002,0.0,0.0,0.0,0.0,0.0,0.0,0.0,0.0,0.0,-0.091,-0.088,-9.588,0.0,0.0,0.0,0.0,0.0,0.0,0.0,0.0,0.0
1581281147074100253,148,1581281147073219776,imu,0.00659672360043,0.00020428764298,0.705853047667,0.708327548952,0.0,0.0,0.0,0.0,0.0,0.0,0.0,0.0,0.0,0.001936,0.001107,0.0002,0.0,0.0,0.0,0.0,0.0,0.0,0.0,0.0,0.0,-0.075,-0.102,-9.563,0.0,0.0,0.0,0.0,0.0,0.0,0.0,0.0,0.0
1581281147099140821,149,1581281147098129034,imu,0.00660290492413,0.000210447372831,0.705853045857,0.708327491357,0.0,0.0,0.0,0.0,0.0,0.0,0.0,0.0,0.0,-0.00012,0.000253,-0.0002,0.0,0.0,0.0,0.0,0.0,0.0,0.0,0.0,0.0,-0.089,-0.091,-9.602,0.0,0.0,0.0,0.0,0.0,0.0,0.0,0.0,0.0
1581281147123894372,150,1581281147123081684,imu,0.00659672360043,0.00020428764298,0.705853047667,0.708327548952,0.0,0.0,0.0,0.0,0.0,0.0,0.0,0.0,0.0,0.000156,-0.000241,0.0014,0.0,0.0,0.0,0.0,0.0,0.0,0.0,0.0,0.0,-0.089,-0.089,-9.6,0.0,0.0,0.0,0.0,0.0,0.0,0.0,0.0,0.0
1581281147148998032,151,1581281147148037910,imu,0.00660904084665,0.000191982134327,0.705859232829,0.708321273966,0.0,0.0,0.0,0.0,0.0,0.0,0.0,0.0,0.0,-0.000667,-0.000273,0.0011,0.0,0.0,0.0,0.0,0.0,0.0,0.0,0.0,0.0,-0.069,-0.087,-9.594,0.0,0.0,0.0,0.0,0.0,0.0,0.0,0.0,0.0
1581281147173953252,152,1581281147173067808,imu,0.00660904252176,0.000191924459558,0.705853051533,0.708327433723,0.0,0.0,0.0,0.0,0.0,0.0,0.0,0.0,0.0,-0.000206,0.000214,0.0004,0.0,0.0,0.0,0.0,0.0,0.0,0.0,0.0,0.0,-0.064,-0.104,-9.592,0.0,0.0,0.0,0.0,0.0,0.0,0.0,0.0,0.0
1581281147198992190,153,1581281147197992563,imu,0.00660288133229,0.000198163672294,0.705859230923,0.708321331607,0.0,0.0,0.0,0.0,0.0,0.0,0.0,0.0,0.0,-0.001086,-3e-06,0.0001,0.0,0.0,0.0,0.0,0.0,0.0,0.0,0.0,0.0,-0.08,-0.084,-9.573,0.0,0.0,0.0,0.0,0.0,0.0,0.0,0.0,0.0
1581281147223857546,154,1581281147222998857,imu,0.00660904084665,0.000191982134327,0.705859232829,0.708321273966,0.0,0.0,0.0,0.0,0.0,0.0,0.0,0.0,0.0,-0.001015,-0.002254,-0.0,0.0,0.0,0.0,0.0,0.0,0.0,0.0,0.0,0.0,-0.085,-0.097,-9.609,0.0,0.0,0.0,0.0,0.0,0.0,0.0,0.0,0.0
1581281147249068440,155,1581281147248112678,imu,0.0066028595772,0.000185822350486,0.705859234477,0.708321331614,0.0,0.0,0.0,0.0,0.0,0.0,0.0,0.0,0.0,0.000255,-0.000412,-0.0001,0.0,0.0,0.0,0.0,0.0,0.0,0.0,0.0,0.0,-0.056,-0.102,-9.622,0.0,0.0,0.0,0.0,0.0,0.0,0.0,0.0,0.0
1581281147274006072,156,1581281147272991180,imu,0.00660904252176,0.000191924459558,0.705853051533,0.708327433723,0.0,0.0,0.0,0.0,0.0,0.0,0.0,0.0,0.0,-0.000279,-0.000314,-0.0001,0.0,0.0,0.0,0.0,0.0,0.0,0.0,0.0,0.0,-0.079,-0.108,-9.615,0.0,0.0,0.0,0.0,0.0,0.0,0.0,0.0,0.0
1581281147298777351,157,1581281147297912597,imu,0.0066152221156,0.000198141918154,0.705859231126,0.708321216264,0.0,0.0,0.0,0.0,0.0,0.0,0.0,0.0,0.0,0.000501,-0.00057,-0.0001,0.0,0.0,0.0,0.0,0.0,0.0,0.0,0.0,0.0,-0.079,-0.082,-9.626,0.0,0.0,0.0,0.0,0.0,0.0,0.0,0.0,0.0
1581281147323851135,158,1581281147322989940,imu,0.00660904252176,0.000191924459558,0.705853051533,0.708327433723,0.0,0.0,0.0,0.0,0.0,0.0,0.0,0.0,0.0,-0.000685,-0.000423,0.0008,0.0,0.0,0.0,0.0,0.0,0.0,0.0,0.0,0.0,-0.084,-0.094,-9.587,0.0,0.0,0.0,0.0,0.0,0.0,0.0,0.0,0.0
1581281147348575349,159,1581281147347873687,imu,0.00661520198167,0.000185742867825,0.705853053385,0.708327376027,0.0,0.0,0.0,0.0,0.0,0.0,0.0,0.0,0.0,0.000858,0.000644,0.0012,0.0,0.0,0.0,0.0,0.0,0.0,0.0,0.0,0.0,-0.096,-0.092,-9.594,0.0,0.0,0.0,0.0,0.0,0.0,0.0,0.0,0.0
1581281147373697531,160,1581281147372905969,imu,0.00660904419636,0.000191866784775,0.705846870183,0.708333593426,0.0,0.0,0.0,0.0,0.0,0.0,0.0,0.0,0.0,-0.001296,0.00067,0.0007,0.0,0.0,0.0,0.0,0.0,0.0,0.0,0.0,0.0,-0.091,-0.099,-9.618,0.0,0.0,0.0,0.0,0.0,0.0,0.0,0.0,0.0
1581281147398700053,161,1581281147398001909,imu,0.00660906438455,0.000204265781145,0.705853047871,0.708327433716,0.0,0.0,0.0,0.0,0.0,0.0,0.0,0.0,0.0,-0.000462,-0.000449,0.0005,0.0,0.0,0.0,0.0,0.0,0.0,0.0,0.0,0.0,-0.087,-0.117,-9.617,0.0,0.0,0.0,0.0,0.0,0.0,0.0,0.0,0.0
1581281147424242211,162,1581281147423645257,imu,0.00661522384446,0.000198084189443,0.705853049831,0.708327376021,0.0,0.0,0.0,0.0,0.0,0.0,0.0,0.0,0.0,0.000426,0.000301,0.0001,0.0,0.0,0.0,0.0,0.0,0.0,0.0,0.0,0.0,-0.063,-0.088,-9.587,0.0,0.0,0.0,0.0,0.0,0.0,0.0,0.0,0.0
1581281147448658674,163,1581281147448044776,imu,0.00661522384446,0.000198084189443,0.705853049831,0.708327376021,0.0,0.0,0.0,0.0,0.0,0.0,0.0,0.0,0.0,0.000978,-0.000502,0.0002,0.0,0.0,0.0,0.0,0.0,0.0,0.0,0.0,0.0,-0.089,-0.068,-9.578,0.0,0.0,0.0,0.0,0.0,0.0,0.0,0.0,0.0
1581281147474314657,164,1581281147473623275,imu,0.00660906081843,0.000204381131047,0.705865410409,0.708315114149,0.0,0.0,0.0,0.0,0.0,0.0,0.0,0.0,0.0,0.000721,-0.000307,0.001,0.0,0.0,0.0,0.0,0.0,0.0,0.0,0.0,0.0,-0.072,-0.097,-9.586,0.0,0.0,0.0,0.0,0.0,0.0,0.0,0.0,0.0
1581281147498464608,165,1581281147497858762,imu,0.006596767326,0.000228970285952,0.705853039697,0.708327548938,0.0,0.0,0.0,0.0,0.0,0.0,0.0,0.0,0.0,0.000113,-1.8e-05,-0.0024,0.0,0.0,0.0,0.0,0.0,0.0,0.0,0.0,0.0,-0.085,-0.086,-9.592,0.0,0.0,0.0,0.0,0.0,0.0,0.0,0.0,0.0
1581281147524320116,166,1581281147523580312,imu,0.00660290676038,0.000210389751607,0.705846864507,0.70833365106,0.0,0.0,0.0,0.0,0.0,0.0,0.0,0.0,0.0,-0.00053,-0.000982,0.0,0.0,0.0,0.0,0.0,0.0,0.0,0.0,0.0,0.0,-0.08,-0.091,-9.566,0.0,0.0,0.0,0.0,0.0,0.0,0.0,0.0,0.0
1581281147548909430,167,1581281147547849893,imu,0.00659060991642,0.000235094363656,0.705846856117,0.708333766174,0.0,0.0,0.0,0.0,0.0,0.0,0.0,0.0,0.0,0.000403,0.001213,-0.0001,0.0,0.0,0.0,0.0,0.0,0.0,0.0,0.0,0.0,-0.113,-0.081,-9.614,0.0,0.0,0.0,0.0,0.0,0.0,0.0,0.0,0.0
1581281147574368334,168,1581281147573558807,imu,0.00657827118101,0.000235058926954,0.705840674506,0.708340040735,0.0,0.0,0.0,0.0,0.0,0.0,0.0,0.0,0.0,0.000187,-0.000524,0.0002,0.0,0.0,0.0,0.0,0.0,0.0,0.0,0.0,0.0,-0.087,-0.106,-9.617,0.0,0.0,0.0,0.0,0.0,0.0,0.0,0.0,0.0
1581281147599402983,169,1581281147598463058,imu,0.0065844547185,0.00024116108863,0.705834490969,0.708346142897,0.0,0.0,0.0,0.0,0.0,0.0,0.0,0.0,0.0,0.00061,-0.000622,0.0003,0.0,0.0,0.0,0.0,0.0,0.0,0.0,0.0,0.0,-0.086,-0.087,-9.591,0.0,0.0,0.0,0.0,0.0,0.0,0.0,0.0,0.0
1581281147624497749,170,1581281147623553752,imu,0.00656597228151,0.000259820944947,0.705846846661,0.708333995767,0.0,0.0,0.0,0.0,0.0,0.0,0.0,0.0,0.0,-0.000874,0.000582,0.0,0.0,0.0,0.0,0.0,0.0,0.0,0.0,0.0,0.0,-0.063,-0.094,-9.581,0.0,0.0,0.0,0.0,0.0,0.0,0.0,0.0,0.0
1581281147649222535,171,1581281147648503541,imu,0.00655365108554,0.00027224142688,0.705853022965,0.708327950538,0.0,0.0,0.0,0.0,0.0,0.0,0.0,0.0,0.0,1.4e-05,0.000825,-0.0,0.0,0.0,0.0,0.0,0.0,0.0,0.0,0.0,0.0,-0.115,-0.095,-9.623,0.0,0.0,0.0,0.0,0.0,0.0,0.0,0.0,0.0
1581281147674321192,172,1581281147673490762,imu,0.00655362922275,0.000259900105702,0.705853027812,0.708327950546,0.0,0.0,0.0,0.0,0.0,0.0,0.0,0.0,0.0,-0.000458,0.000106,0.0003,0.0,0.0,0.0,0.0,0.0,0.0,0.0,0.0,0.0,-0.094,-0.111,-9.6,0.0,0.0,0.0,0.0,0.0,0.0,0.0,0.0,0.0
1581281147699706173,173,1581281147698435068,imu,0.00654126656684,0.000247580646293,0.70585303224,0.708328064821,0.0,0.0,0.0,0.0,0.0,0.0,0.0,0.0,0.0,-0.001398,0.000381,0.0002,0.0,0.0,0.0,0.0,0.0,0.0,0.0,0.0,0.0,-0.098,-0.08,-9.606,0.0,0.0,0.0,0.0,0.0,0.0,0.0,0.0,0.0
1581281147724270294,174,1581281147723473548,imu,0.00653510710092,0.00025376223786,0.705853029851,0.708328121869,0.0,0.0,0.0,0.0,0.0,0.0,0.0,0.0,0.0,-5.7e-05,0.001254,0.0005,0.0,0.0,0.0,0.0,0.0,0.0,0.0,0.0,0.0,-0.125,-0.095,-9.581,0.0,0.0,0.0,0.0,0.0,0.0,0.0,0.0,0.0
1581281147749290248,175,1581281147748502254,imu,0.00654131029241,0.000272263288732,0.705853022763,0.708328064804,0.0,0.0,0.0,0.0,0.0,0.0,0.0,0.0,0.0,0.00019,-0.000799,0.0006,0.0,0.0,0.0,0.0,0.0,0.0,0.0,0.0,0.0,-0.069,-0.096,-9.597,0.0,0.0,0.0,0.0,0.0,0.0,0.0,0.0,0.0
1581281147774406526,176,1581281147773449182,imu,0.00653517268928,0.000290786201262,0.705853014988,0.708328121843,0.0,0.0,0.0,0.0,0.0,0.0,0.0,0.0,0.0,0.00053,-0.000686,0.0008,0.0,0.0,0.0,0.0,0.0,0.0,0.0,0.0,0.0,-0.081,-0.081,-9.613,0.0,0.0,0.0,0.0,0.0,0.0,0.0,0.0,0.0
1581281147799464284,177,1581281147798465490,imu,0.00654131266811,0.00027220620502,0.705846841408,0.708334224507,0.0,0.0,0.0,0.0,0.0,0.0,0.0,0.0,0.0,-0.000127,0.000561,0.0006,0.0,0.0,0.0,0.0,0.0,0.0,0.0,0.0,0.0,-0.077,-0.119,-9.626,0.0,0.0,0.0,0.0,0.0,0.0,0.0,0.0,0.0
1581281147824528260,178,1581281147823426961,imu,0.00653513128565,0.000266046529311,0.705846843756,0.708334281563,0.0,0.0,0.0,0.0,0.0,0.0,0.0,0.0,0.0,1e-05,0.000743,-0.0003,0.0,0.0,0.0,0.0,0.0,0.0,0.0,0.0,0.0,-0.107,-0.077,-9.601,0.0,0.0,0.0,0.0,0.0,0.0,0.0,0.0,0.0
1581281147848986577,179,1581281147848286151,imu,0.00654746975783,0.000266081697227,0.705853025314,0.708328007702,0.0,0.0,0.0,0.0,0.0,0.0,0.0,0.0,0.0,-0.000557,-0.000182,0.0004,0.0,0.0,0.0,0.0,0.0,0.0,0.0,0.0,0.0,-0.05,-0.089,-9.564,0.0,0.0,0.0,0.0,0.0,0.0,0.0,0.0,0.0
1581281147874145081,180,1581281147873384237,imu,0.00654749405007,0.000278365880708,0.705846839005,0.708334167396,0.0,0.0,0.0,0.0,0.0,0.0,0.0,0.0,0.0,-0.0005,0.000271,-0.0009,0.0,0.0,0.0,0.0,0.0,0.0,0.0,0.0,0.0,-0.084,-0.107,-9.61,0.0,0.0,0.0,0.0,0.0,0.0,0.0,0.0,0.0
1581281147899393718,181,1581281147898390531,imu,0.00655983484201,0.000278343911165,0.705846839209,0.708334053022,0.0,0.0,0.0,0.0,0.0,0.0,0.0,0.0,0.0,0.000603,0.000203,-0.0005,0.0,0.0,0.0,0.0,0.0,0.0,0.0,0.0,0.0,-0.077,-0.096,-9.58,0.0,0.0,0.0,0.0,0.0,0.0,0.0,0.0,0.0
1581281147924202283,182,1581281147923411369,imu,0.00655367791424,0.000284468364757,0.705840655141,0.70834026988,0.0,0.0,0.0,0.0,0.0,0.0,0.0,0.0,0.0,-5.9e-05,-0.000607,0.0001,0.0,0.0,0.0,0.0,0.0,0.0,0.0,0.0,0.0,-0.089,-0.074,-9.608,0.0,0.0,0.0,0.0,0.0,0.0,0.0,0.0,0.0
1581281147949118515,183,1581281147948298692,imu,0.00655367543153,0.000284525556375,0.705846836549,0.708334110231,0.0,0.0,0.0,0.0,0.0,0.0,0.0,0.0,0.0,0.001344,-0.000507,0.0007,0.0,0.0,0.0,0.0,0.0,0.0,0.0,0.0,0.0,-0.068,-0.083,-9.588,0.0,0.0,0.0,0.0,0.0,0.0,0.0,0.0,0.0
1581281147974011557,184,1581281147973323106,imu,0.00655983484201,0.000278343911165,0.705846839209,0.708334053022,0.0,0.0,0.0,0.0,0.0,0.0,0.0,0.0,0.0,0.000258,-0.000759,0.0009,0.0,0.0,0.0,0.0,0.0,0.0,0.0,0.0,0.0,-0.085,-0.076,-9.614,0.0,0.0,0.0,0.0,0.0,0.0,0.0,0.0,0.0
1581281147999079337,185,1581281147998287677,imu,0.00655981519259,0.000265945345044,0.705840662755,0.708340212679,0.0,0.0,0.0,0.0,0.0,0.0,0.0,0.0,0.0,0.000296,-0.000122,0.0014,0.0,0.0,0.0,0.0,0.0,0.0,0.0,0.0,0.0,-0.081,-0.099,-9.562,0.0,0.0,0.0,0.0,0.0,0.0,0.0,0.0,0.0
1581281148024096296,186,1581281148023290395,imu,0.00655365346105,0.000272184235475,0.705846841611,0.70833411024,0.0,0.0,0.0,0.0,0.0,0.0,0.0,0.0,0.0,-0.001248,-0.000297,0.0004,0.0,0.0,0.0,0.0,0.0,0.0,0.0,0.0,0.0,-0.102,-0.099,-9.595,0.0,0.0,0.0,0.0,0.0,0.0,0.0,0.0,0.0
1581281148049678380,187,1581281148048379659,imu,0.00655981287153,0.000266002590221,0.705846844163,0.708334053031,0.0,0.0,0.0,0.0,0.0,0.0,0.0,0.0,0.0,-2.1e-05,-0.000334,0.0006,0.0,0.0,0.0,0.0,0.0,0.0,0.0,0.0,0.0,-0.085,-0.108,-9.61,0.0,0.0,0.0,0.0,0.0,0.0,0.0,0.0,0.0
1581281148074023571,188,1581281148073232889,imu,0.00655981054997,0.000266059835377,0.705853025517,0.708327893328,0.0,0.0,0.0,0.0,0.0,0.0,0.0,0.0,0.0,0.000456,0.000382,0.0004,0.0,0.0,0.0,0.0,0.0,0.0,0.0,0.0,0.0,-0.069,-0.103,-9.587,0.0,0.0,0.0,0.0,0.0,0.0,0.0,0.0,0.0
1581281148098944464,189,1581281148098123788,imu,0.00655363149056,0.000259842914488,0.705846846457,0.708334110249,0.0,0.0,0.0,0.0,0.0,0.0,0.0,0.0,0.0,-0.001922,-0.000484,0.0005,0.0,0.0,0.0,0.0,0.0,0.0,0.0,0.0,0.0,-0.081,-0.092,-9.621,0.0,0.0,0.0,0.0,0.0,0.0,0.0,0.0,0.0
1581281148124240125,190,1581281148123256921,imu,0.00655981287153,0.000266002590221,0.705846844163,0.708334053031,0.0,0.0,0.0,0.0,0.0,0.0,0.0,0.0,0.0,-0.000338,-0.000546,-0.0003,0.0,0.0,0.0,0.0,0.0,0.0,0.0,0.0,0.0,-0.099,-0.101,-9.611,0.0,0.0,0.0,0.0,0.0,0.0,0.0,0.0,0.0
1581281148149037903,191,1581281148148230314,imu,0.00655363375787,0.000259785723255,0.705840665049,0.708340269898,0.0,0.0,0.0,0.0,0.0,0.0,0.0,0.0,0.0,-5e-05,0.000535,-0.0002,0.0,0.0,0.0,0.0,0.0,0.0,0.0,0.0,0.0,-0.108,-0.101,-9.576,0.0,0.0,0.0,0.0,0.0,0.0,0.0,0.0,0.0
1581281148174061603,192,1581281148173226594,imu,0.0065597931144,0.000253604024208,0.705840667494,0.708340212688,0.0,0.0,0.0,0.0,0.0,0.0,0.0,0.0,0.0,-0.00022,0.000654,0.0005,0.0,0.0,0.0,0.0,0.0,0.0,0.0,0.0,0.0,-0.1,-0.094,-9.592,0.0,0.0,0.0,0.0,0.0,0.0,0.0,0.0,0.0
1581281148198843979,193,1581281148198098659,imu,0.00657829325919,0.00024740024791,0.70584067009,0.708340040727,0.0,0.0,0.0,0.0,0.0,0.0,0.0,0.0,0.0,-3.6e-05,-0.000649,0.0005,0.0,0.0,0.0,0.0,0.0,0.0,0.0,0.0,0.0,-0.117,-0.107,-9.587,0.0,0.0,0.0,0.0,0.0,0.0,0.0,0.0,0.0
1581281148223872676,194,1581281148223167896,imu,0.00657829109996,0.000247457654339,0.705846851497,0.708333881078,0.0,0.0,0.0,0.0,0.0,0.0,0.0,0.0,0.0,-0.000421,0.000542,0.0005,0.0,0.0,0.0,0.0,0.0,0.0,0.0,0.0,0.0,-0.065,-0.095,-9.598,0.0,0.0,0.0,0.0,0.0,0.0,0.0,0.0,0.0
1581281148248806608,195,1581281148248159646,imu,0.00657213390416,0.000253581946975,0.705840667699,0.708340098098,0.0,0.0,0.0,0.0,0.0,0.0,0.0,0.0,0.0,-0.000324,-4.4e-05,0.0002,0.0,0.0,0.0,0.0,0.0,0.0,0.0,0.0,0.0,-0.085,-0.082,-9.61,0.0,0.0,0.0,0.0,0.0,0.0,0.0,0.0,0.0
1581281148273827155,196,1581281148273155212,imu,0.00655976893056,0.000241319948083,0.705846853425,0.708334053047,0.0,0.0,0.0,0.0,0.0,0.0,0.0,0.0,0.0,-0.000655,-0.000981,0.0003,0.0,0.0,0.0,0.0,0.0,0.0,0.0,0.0,0.0,-0.096,-0.068,-9.605,0.0,0.0,0.0,0.0,0.0,0.0,0.0,0.0,0.0
1581281148298833769,197,1581281148298197984,imu,0.00655361167969,0.000247444402377,0.70584066968,0.708340269906,0.0,0.0,0.0,0.0,0.0,0.0,0.0,0.0,0.0,-0.000617,-0.000772,-0.0008,0.0,0.0,0.0,0.0,0.0,0.0,0.0,0.0,0.0,-0.066,-0.089,-9.603,0.0,0.0,0.0,0.0,0.0,0.0,0.0,0.0,0.0
1581281148324143494,198,1581281148323094844,imu,0.00655361167969,0.000247444402377,0.70584066968,0.708340269906,0.0,0.0,0.0,0.0,0.0,0.0,0.0,0.0,0.0,-0.000257,-0.000189,0.0006,0.0,0.0,0.0,0.0,0.0,0.0,0.0,0.0,0.0,-0.08,-0.111,-9.606,0.0,0.0,0.0,0.0,0.0,0.0,0.0,0.0,0.0
1581281148348921950,199,1581281148348066806,imu,0.00654744789504,0.000253740376007,0.705853030053,0.70832800771,0.0,0.0,0.0,0.0,0.0,0.0,0.0,0.0,0.0,0.00063,-0.00102,0.0008,0.0,0.0,0.0,0.0,0.0,0.0,0.0,0.0,0.0,-0.076,-0.105,-9.586,0.0,0.0,0.0,0.0,0.0,0.0,0.0,0.0,0.0
1581281148375075358,200,1581281148373010873,imu,0.00654742813861,0.000241341917626,0.705846853221,0.708334167421,0.0,0.0,0.0,0.0,0.0,0.0,0.0,0.0,0.0,-0.000944,-0.000423,-0.0007,0.0,0.0,0.0,0.0,0.0,0.0,0.0,0.0,0.0,-0.084,-0.068,-9.579,0.0,0.0,0.0,0.0,0.0,0.0,0.0,0.0,0.0
1581281148398788204,201,1581281148397999525,imu,0.0065474501091,0.000253683238736,0.705846848698,0.708334167413,0.0,0.0,0.0,0.0,0.0,0.0,0.0,0.0,0.0,0.000296,0.00112,0.001,0.0,0.0,0.0,0.0,0.0,0.0,0.0,0.0,0.0,-0.09,-0.087,-9.602,0.0,0.0,0.0,0.0,0.0,0.0,0.0,0.0,0.0
1581281148423846296,202,1581281148422975301,imu,0.00654744789504,0.000253740376007,0.705853030053,0.70832800771,0.0,0.0,0.0,0.0,0.0,0.0,0.0,0.0,0.0,-0.000729,-0.001067,-0.0,0.0,0.0,0.0,0.0,0.0,0.0,0.0,0.0,0.0,-0.071,-0.088,-9.564,0.0,0.0,0.0,0.0,0.0,0.0,0.0,0.0,0.0
1581281148448617521,203,1581281148447829484,imu,0.00654126656684,0.000247580646293,0.70585303224,0.708328064821,0.0,0.0,0.0,0.0,0.0,0.0,0.0,0.0,0.0,0.000976,0.000138,0.0007,0.0,0.0,0.0,0.0,0.0,0.0,0.0,0.0,0.0,-0.078,-0.082,-9.604,0.0,0.0,0.0,0.0,0.0,0.0,0.0,0.0,0.0
1581281148474730787,204,1581281148473599195,imu,0.00654746975783,0.000266081697227,0.705853025314,0.708328007702,0.0,0.0,0.0,0.0,0.0,0.0,0.0,0.0,0.0,0.000345,0.000496,0.0004,0.0,0.0,0.0,0.0,0.0,0.0,0.0,0.0,0.0,-0.074,-0.079,-9.595,0.0,0.0,0.0,0.0,0.0,0.0,0.0,0.0,0.0
1581281148498610779,205,1581281148497922420,imu,0.00654131266811,0.00027220620502,0.705846841408,0.708334224507,0.0,0.0,0.0,0.0,0.0,0.0,0.0,0.0,0.0,7.2e-05,0.000173,-0.0,0.0,0.0,0.0,0.0,0.0,0.0,0.0,0.0,0.0,-0.09,-0.1,-9.583,0.0,0.0,0.0,0.0,0.0,0.0,0.0,0.0,0.0
1581281148524157551,206,1581281148523563146,imu,0.00655365108554,0.00027224142688,0.705853022965,0.708327950538,0.0,0.0,0.0,0.0,0.0,0.0,0.0,0.0,0.0,-0.00026,-0.000865,-0.0005,0.0,0.0,0.0,0.0,0.0,0.0,0.0,0.0,0.0,-0.1,-0.073,-9.619,0.0,0.0,0.0,0.0,0.0,0.0,0.0,0.0,0.0
1581281148549153226,207,1581281148548581838,imu,0.00655978647282,0.000253775759103,0.705859211556,0.70832173358,0.0,0.0,0.0,0.0,0.0,0.0,0.0,0.0,0.0,-0.000728,-0.0001,0.0005,0.0,0.0,0.0,0.0,0.0,0.0,0.0,0.0,0.0,-0.099,-0.102,-9.634,0.0,0.0,0.0,0.0,0.0,0.0,0.0,0.0,0.0
1581281148574110621,208,1581281148573552608,imu,0.00655978647282,0.000253775759103,0.705859211556,0.70832173358,0.0,0.0,0.0,0.0,0.0,0.0,0.0,0.0,0.0,-0.001221,5.9e-05,0.0009,0.0,0.0,0.0,0.0,0.0,0.0,0.0,0.0,0.0,-0.078,-0.097,-9.609,0.0,0.0,0.0,0.0,0.0,0.0,0.0,0.0,0.0
1581281148598394319,209,1581281148597786188,imu,0.00654744568049,0.000253797513259,0.705859211354,0.708321847954,0.0,0.0,0.0,0.0,0.0,0.0,0.0,0.0,0.0,-0.001023,0.000174,-0.0001,0.0,0.0,0.0,0.0,0.0,0.0,0.0,0.0,0.0,-0.066,-0.101,-9.589,0.0,0.0,0.0,0.0,0.0,0.0,0.0,0.0,0.0
1581281148624622038,210,1581281148623578071,imu,0.00654746975783,0.000266081697227,0.705853025314,0.708328007702,0.0,0.0,0.0,0.0,0.0,0.0,0.0,0.0,0.0,0.000651,0.000955,0.0003,0.0,0.0,0.0,0.0,0.0,0.0,0.0,0.0,0.0,-0.089,-0.096,-9.61,0.0,0.0,0.0,0.0,0.0,0.0,0.0,0.0,0.0
1581281148649241206,211,1581281148648426771,imu,0.00654130791622,0.000272320372422,0.705859204065,0.708321905047,0.0,0.0,0.0,0.0,0.0,0.0,0.0,0.0,0.0,0.000482,0.000339,0.0019,0.0,0.0,0.0,0.0,0.0,0.0,0.0,0.0,0.0,-0.096,-0.098,-9.579,0.0,0.0,0.0,0.0,0.0,0.0,0.0,0.0,0.0
1581281148674168379,212,1581281148673477411,imu,0.00654746743558,0.000266138834669,0.705859206615,0.708321847945,0.0,0.0,0.0,0.0,0.0,0.0,0.0,0.0,0.0,-0.000499,-0.000126,0.0003,0.0,0.0,0.0,0.0,0.0,0.0,0.0,0.0,0.0,-0.102,-0.078,-9.599,0.0,0.0,0.0,0.0,0.0,0.0,0.0,0.0,0.0
1581281148699559006,213,1581281148698582410,imu,0.00655362695445,0.000259957296896,0.705859209112,0.708321790789,0.0,0.0,0.0,0.0,0.0,0.0,0.0,0.0,0.0,0.000884,0.00047,-0.0006,0.0,0.0,0.0,0.0,0.0,0.0,0.0,0.0,0.0,-0.077,-0.082,-9.591,0.0,0.0,0.0,0.0,0.0,0.0,0.0,0.0,0.0
1581281148724206089,214,1581281148723456144,imu,0.00655980590535,0.000266174325629,0.705865388063,0.708315573761,0.0,0.0,0.0,0.0,0.0,0.0,0.0,0.0,0.0,-0.000202,0.000718,0.0015,0.0,0.0,0.0,0.0,0.0,0.0,0.0,0.0,0.0,-0.092,-0.092,-9.584,0.0,0.0,0.0,0.0,0.0,0.0,0.0,0.0,0.0
1581281148749126604,215,1581281148748369455,imu,0.00655980590535,0.000266174325629,0.705865388063,0.708315573761,0.0,0.0,0.0,0.0,0.0,0.0,0.0,0.0,0.0,0.000417,0.000197,0.0004,0.0,0.0,0.0,0.0,0.0,0.0,0.0,0.0,0.0,-0.096,-0.095,-9.602,0.0,0.0,0.0,0.0,0.0,0.0,0.0,0.0,0.0
1581281148774318709,216,1581281148773489952,imu,0.00656596320804,0.000260050140458,0.705871571752,0.708309356633,0.0,0.0,0.0,0.0,0.0,0.0,0.0,0.0,0.0,-0.000479,0.000213,0.0017,0.0,0.0,0.0,0.0,0.0,0.0,0.0,0.0,0.0,-0.071,-0.087,-9.627,0.0,0.0,0.0,0.0,0.0,0.0,0.0,0.0,0.0
1581281148799402833,217,1581281148798403263,imu,0.00656595866831,0.000260164738095,0.705883933975,0.708297036742,0.0,0.0,0.0,0.0,0.0,0.0,0.0,0.0,0.0,-0.000425,0.000146,0.0015,0.0,0.0,0.0,0.0,0.0,0.0,0.0,0.0,0.0,-0.074,-0.1,-9.611,0.0,0.0,0.0,0.0,0.0,0.0,0.0,0.0,0.0
1581281148824050530,218,1581281148823373317,imu,0.00655361787623,0.000260186061474,0.705883933777,0.708297151223,0.0,0.0,0.0,0.0,0.0,0.0,0.0,0.0,0.0,0.00035,-0.000664,0.0,0.0,0.0,0.0,0.0,0.0,0.0,0.0,0.0,0.0,-0.081,-0.105,-9.582,0.0,0.0,0.0,0.0,0.0,0.0,0.0,0.0,0.0
1581281148849042399,219,1581281148848294973,imu,0.00655977761038,0.000254004738693,0.705883936218,0.708297094014,0.0,0.0,0.0,0.0,0.0,0.0,0.0,0.0,0.0,-7.2e-05,0.000762,0.0007,0.0,0.0,0.0,0.0,0.0,0.0,0.0,0.0,0.0,-0.084,-0.084,-9.607,0.0,0.0,0.0,0.0,0.0,0.0,0.0,0.0,0.0
1581281148874375168,220,1581281148873388528,imu,0.0065597820426,0.000253890248937,0.705871573995,0.708309413904,0.0,0.0,0.0,0.0,0.0,0.0,0.0,0.0,0.0,-0.001394,0.001587,-0.0003,0.0,0.0,0.0,0.0,0.0,0.0,0.0,0.0,0.0,-0.098,-0.105,-9.618,0.0,0.0,0.0,0.0,0.0,0.0,0.0,0.0,0.0
1581281148899201061,221,1581281148898389339,imu,0.0065721228333,0.000253868710172,0.705871574195,0.708309299315,0.0,0.0,0.0,0.0,0.0,0.0,0.0,0.0,0.0,-0.000344,0.000566,-0.0005,0.0,0.0,0.0,0.0,0.0,0.0,0.0,0.0,0.0,-0.094,-0.11,-9.601,0.0,0.0,0.0,0.0,0.0,0.0,0.0,0.0,0.0
1581281148924194822,222,1581281148923508405,imu,0.00657826091836,0.000235345957958,0.705871580999,0.708309241951,0.0,0.0,0.0,0.0,0.0,0.0,0.0,0.0,0.0,0.000727,0.000378,-0.001,0.0,0.0,0.0,0.0,0.0,0.0,0.0,0.0,0.0,-0.095,-0.088,-9.55,0.0,0.0,0.0,0.0,0.0,0.0,0.0,0.0,0.0
1581281148949791226,223,1581281148948277950,imu,0.00656591807444,0.000235424795175,0.705877761937,0.70830319673,0.0,0.0,0.0,0.0,0.0,0.0,0.0,0.0,0.0,-0.00019,0.000713,0.0001,0.0,0.0,0.0,0.0,0.0,0.0,0.0,0.0,0.0,-0.085,-0.11,-9.567,0.0,0.0,0.0,0.0,0.0,0.0,0.0,0.0,0.0
1581281148974219596,224,1581281148973349332,imu,0.00655973696275,0.000229264849635,0.705877763965,0.708303254001,0.0,0.0,0.0,0.0,0.0,0.0,0.0,0.0,0.0,0.000782,0.000274,0.0002,0.0,0.0,0.0,0.0,0.0,0.0,0.0,0.0,0.0,-0.054,-0.1,-9.61,0.0,0.0,0.0,0.0,0.0,0.0,0.0,0.0,0.0
1581281148999020256,225,1581281148998247385,imu,0.00656591601972,0.00023548209361,0.705883943022,0.708297036757,0.0,0.0,0.0,0.0,0.0,0.0,0.0,0.0,0.0,0.000904,-0.000277,0.0014,0.0,0.0,0.0,0.0,0.0,0.0,0.0,0.0,0.0,-0.079,-0.104,-9.606,0.0,0.0,0.0,0.0,0.0,0.0,0.0,0.0,0.0
1581281149024125163,226,1581281149023313522,imu,0.00656591807444,0.000235424795175,0.705877761937,0.70830319673,0.0,0.0,0.0,0.0,0.0,0.0,0.0,0.0,0.0,0.000932,-0.000364,0.0002,0.0,0.0,0.0,0.0,0.0,0.0,0.0,0.0,0.0,-0.097,-0.102,-9.622,0.0,0.0,0.0,0.0,0.0,0.0,0.0,0.0,0.0
1581281149050253697,227,1581281149048291444,imu,0.00657209707716,0.000241642093073,0.70588394094,0.708296979432,0.0,0.0,0.0,0.0,0.0,0.0,0.0,0.0,0.0,-0.000416,0.001231,0.0005,0.0,0.0,0.0,0.0,0.0,0.0,0.0,0.0,0.0,-0.082,-0.082,-9.597,0.0,0.0,0.0,0.0,0.0,0.0,0.0,0.0,0.0
1581281149074388058,228,1581281149073360204,imu,0.0065782568098,0.000235460770235,0.70588394322,0.70829692206,0.0,0.0,0.0,0.0,0.0,0.0,0.0,0.0,0.0,0.000267,-0.000958,0.0013,0.0,0.0,0.0,0.0,0.0,0.0,0.0,0.0,0.0,-0.053,-0.093,-9.598,0.0,0.0,0.0,0.0,0.0,0.0,0.0,0.0,0.0
1581281149099267392,229,1581281149098187446,imu,0.00657209918563,0.000241584740697,0.705877759856,0.708303139404,0.0,0.0,0.0,0.0,0.0,0.0,0.0,0.0,0.0,-0.001219,0.000244,0.0005,0.0,0.0,0.0,0.0,0.0,0.0,0.0,0.0,0.0,-0.072,-0.084,-9.6,0.0,0.0,0.0,0.0,0.0,0.0,0.0,0.0,0.0
1581281149124206070,230,1581281149123186349,imu,0.00655975839474,0.000241606171768,0.705877759657,0.708303253994,0.0,0.0,0.0,0.0,0.0,0.0,0.0,0.0,0.0,-0.000945,0.000247,0.0001,0.0,0.0,0.0,0.0,0.0,0.0,0.0,0.0,0.0,-0.103,-0.098,-9.637,0.0,0.0,0.0,0.0,0.0,0.0,0.0,0.0,0.0
1581281149149382203,231,1581281149148191928,imu,0.00655357728255,0.000235446226248,0.705877761738,0.708303311212,0.0,0.0,0.0,0.0,0.0,0.0,0.0,0.0,0.0,-0.000441,0.001073,0.0015,0.0,0.0,0.0,0.0,0.0,0.0,0.0,0.0,0.0,-0.086,-0.067,-9.61,0.0,0.0,0.0,0.0,0.0,0.0,0.0,0.0,0.0
1581281149173991713,232,1581281149173155784,imu,0.00654125792066,0.000247808979419,0.705877757124,0.70830342547,0.0,0.0,0.0,0.0,0.0,0.0,0.0,0.0,0.0,0.000182,0.000792,-0.0001,0.0,0.0,0.0,0.0,0.0,0.0,0.0,0.0,0.0,-0.102,-0.074,-9.576,0.0,0.0,0.0,0.0,0.0,0.0,0.0,0.0,0.0
1581281149199844407,233,1581281149198147296,imu,0.00655357728255,0.000235446226248,0.705877761738,0.708303311212,0.0,0.0,0.0,0.0,0.0,0.0,0.0,0.0,0.0,-0.000338,-0.00064,-0.0003,0.0,0.0,0.0,0.0,0.0,0.0,0.0,0.0,0.0,-0.091,-0.091,-9.576,0.0,0.0,0.0,0.0,0.0,0.0,0.0,0.0,0.0
1581281149224014422,234,1581281149223161697,imu,0.00655973696275,0.000229264849635,0.705877763965,0.708303254001,0.0,0.0,0.0,0.0,0.0,0.0,0.0,0.0,0.0,0.000565,-0.000754,0.0011,0.0,0.0,0.0,0.0,0.0,0.0,0.0,0.0,0.0,-0.1,-0.093,-9.624,0.0,0.0,0.0,0.0,0.0,0.0,0.0,0.0,0.0
1581281149248879382,235,1581281149248168468,imu,0.00655357522764,0.000235503416989,0.705883942824,0.708297151239,0.0,0.0,0.0,0.0,0.0,0.0,0.0,0.0,0.0,0.001283,-0.000125,-0.0003,0.0,0.0,0.0,0.0,0.0,0.0,0.0,0.0,0.0,-0.101,-0.116,-9.61,0.0,0.0,0.0,0.0,0.0,0.0,0.0,0.0,0.0
1581281149273898709,236,1581281149273105621,imu,0.00655973296032,0.000229379338608,0.705890126081,0.708290934002,0.0,0.0,0.0,0.0,0.0,0.0,0.0,0.0,0.0,0.000516,0.001077,-0.0005,0.0,0.0,0.0,0.0,0.0,0.0,0.0,0.0,0.0,-0.082,-0.111,-9.592,0.0,0.0,0.0,0.0,0.0,0.0,0.0,0.0,0.0
1581281149298762575,237,1581281149298060178,imu,0.00655357522764,0.000235503416989,0.705883942824,0.708297151239,0.0,0.0,0.0,0.0,0.0,0.0,0.0,0.0,0.0,-0.000887,-6.5e-05,-0.0008,0.0,0.0,0.0,0.0,0.0,0.0,0.0,0.0,0.0,-0.08,-0.095,-9.585,0.0,0.0,0.0,0.0,0.0,0.0,0.0,0.0,0.0
1581281149323975750,238,1581281149323180437,imu,0.00654741338366,0.000241741876801,0.705890121576,0.708291048369,0.0,0.0,0.0,0.0,0.0,0.0,0.0,0.0,0.0,0.000461,0.000569,0.0003,0.0,0.0,0.0,0.0,0.0,0.0,0.0,0.0,0.0,-0.084,-0.089,-9.615,0.0,0.0,0.0,0.0,0.0,0.0,0.0,0.0,0.0
1581281149349167834,239,1581281149348063230,imu,0.00655361333413,0.000260300443645,0.705896295787,0.708284831117,0.0,0.0,0.0,0.0,0.0,0.0,0.0,0.0,0.0,0.000546,0.001501,0.0017,0.0,0.0,0.0,0.0,0.0,0.0,0.0,0.0,0.0,-0.061,-0.094,-9.576,0.0,0.0,0.0,0.0,0.0,0.0,0.0,0.0,0.0
1581281149373759238,240,1581281149373010635,imu,0.00654127253969,0.00026032155164,0.705896295592,0.708284945383,0.0,0.0,0.0,0.0,0.0,0.0,0.0,0.0,0.0,-0.000529,0.000951,0.0011,0.0,0.0,0.0,0.0,0.0,0.0,0.0,0.0,0.0,-0.08,-0.096,-9.606,0.0,0.0,0.0,0.0,0.0,0.0,0.0,0.0,0.0
1581281149398832148,241,1581281149397987365,imu,0.00654129602777,0.000272605790564,0.705890109766,0.708291105455,0.0,0.0,0.0,0.0,0.0,0.0,0.0,0.0,0.0,0.000436,0.001041,0.0013,0.0,0.0,0.0,0.0,0.0,0.0,0.0,0.0,0.0,-0.098,-0.093,-9.623,0.0,0.0,0.0,0.0,0.0,0.0,0.0,0.0,0.0
1581281149423860295,242,1581281149422999620,imu,0.00653513380507,0.000278844089342,0.705896288144,0.708285002423,0.0,0.0,0.0,0.0,0.0,0.0,0.0,0.0,0.0,-0.000745,0.001107,0.0004,0.0,0.0,0.0,0.0,0.0,0.0,0.0,0.0,0.0,-0.098,-0.073,-9.606,0.0,0.0,0.0,0.0,0.0,0.0,0.0,0.0,0.0
1581281149449061260,243,1581281149447978258,imu,0.00652895285215,0.000272683982129,0.70589629055,0.708285059426,0.0,0.0,0.0,0.0,0.0,0.0,0.0,0.0,0.0,-0.000772,-0.001041,-0.0002,0.0,0.0,0.0,0.0,0.0,0.0,0.0,0.0,0.0,-0.094,-0.097,-9.599,0.0,0.0,0.0,0.0,0.0,0.0,0.0,0.0,0.0
1581281149474655333,244,1581281149473661899,imu,0.00652895047229,0.00027274095798,0.705902471476,0.708278899292,0.0,0.0,0.0,0.0,0.0,0.0,0.0,0.0,0.0,-0.000191,-0.000493,0.001,0.0,0.0,0.0,0.0,0.0,0.0,0.0,0.0,0.0,-0.086,-0.098,-9.604,0.0,0.0,0.0,0.0,0.0,0.0,0.0,0.0,0.0
1581281149498906803,245,1581281149497934818,imu,0.00653511037024,0.000266559796501,0.705902474024,0.708278842297,0.0,0.0,0.0,0.0,0.0,0.0,0.0,0.0,0.0,-0.000436,-0.000638,0.0006,0.0,0.0,0.0,0.0,0.0,0.0,0.0,0.0,0.0,-0.094,-0.092,-9.6,0.0,0.0,0.0,0.0,0.0,0.0,0.0,0.0,0.0
1581281149524239350,246,1581281149523664236,imu,0.00653510804382,0.000266616826087,0.705908654896,0.708272682109,0.0,0.0,0.0,0.0,0.0,0.0,0.0,0.0,0.0,-0.000167,0.000614,-0.0006,0.0,0.0,0.0,0.0,0.0,0.0,0.0,0.0,0.0,-0.121,-0.082,-9.619,0.0,0.0,0.0,0.0,0.0,0.0,0.0,0.0,0.0
1581281149549525416,247,1581281149548592567,imu,0.0065351057169,0.000266673855653,0.705914835714,0.708266521867,0.0,0.0,0.0,0.0,0.0,0.0,0.0,0.0,0.0,-4e-05,4.1e-05,0.0002,0.0,0.0,0.0,0.0,0.0,0.0,0.0,0.0,0.0,-0.085,-0.095,-9.579,0.0,0.0,0.0,0.0,0.0,0.0,0.0,0.0,0.0
1581281149574431358,248,1581281149573560476,imu,0.0065289226516,0.000260570562191,0.705921018779,0.708260418573,0.0,0.0,0.0,0.0,0.0,0.0,0.0,0.0,0.0,-0.000291,-0.000478,0.0015,0.0,0.0,0.0,0.0,0.0,0.0,0.0,0.0,0.0,-0.089,-0.091,-9.592,0.0,0.0,0.0,0.0,0.0,0.0,0.0,0.0,0.0
1581281149598541774,249,1581281149597840309,imu,0.00654126344877,0.000260549884967,0.70592101897,0.708260304522,0.0,0.0,0.0,0.0,0.0,0.0,0.0,0.0,0.0,0.000888,0.000143,-0.0002,0.0,0.0,0.0,0.0,0.0,0.0,0.0,0.0,0.0,-0.114,-0.13,-9.622,0.0,0.0,0.0,0.0,0.0,0.0,0.0,0.0,0.0
1581281149624189152,250,1581281149623591661,imu,0.00654742350755,0.000254368884716,0.705921021408,0.70826024742,0.0,0.0,0.0,0.0,0.0,0.0,0.0,0.0,0.0,-0.000383,0.000748,0.0,0.0,0.0,0.0,0.0,0.0,0.0,0.0,0.0,0.0,-0.119,-0.078,-9.577,0.0,0.0,0.0,0.0,0.0,0.0,0.0,0.0,0.0
1581281149648999747,251,1581281149648434400,imu,0.00655358139974,0.000248245075241,0.705927204502,0.708254029914,0.0,0.0,0.0,0.0,0.0,0.0,0.0,0.0,0.0,0.001528,0.000109,0.0004,0.0,0.0,0.0,0.0,0.0,0.0,0.0,0.0,0.0,-0.077,-0.089,-9.608,0.0,0.0,0.0,0.0,0.0,0.0,0.0,0.0,0.0
1581281149674448261,252,1581281149673494577,imu,0.00655360424394,0.000260529207747,0.705921019162,0.708260190256,0.0,0.0,0.0,0.0,0.0,0.0,0.0,0.0,0.0,-0.000854,0.000206,-0.0021,0.0,0.0,0.0,0.0,0.0,0.0,0.0,0.0,0.0,-0.095,-0.108,-9.602,0.0,0.0,0.0,0.0,0.0,0.0,0.0,0.0,0.0
1581281149699316733,253,1581281149698458671,imu,0.00655976430173,0.000254348207497,0.7059210216,0.708260133046,0.0,0.0,0.0,0.0,0.0,0.0,0.0,0.0,0.0,0.000763,0.000432,-0.0003,0.0,0.0,0.0,0.0,0.0,0.0,0.0,0.0,0.0,-0.081,-0.104,-9.629,0.0,0.0,0.0,0.0,0.0,0.0,0.0,0.0,0.0
1581281149724250906,254,1581281149723473072,imu,0.00655362968354,0.000272756148593,0.705908652735,0.708272510786,0.0,0.0,0.0,0.0,0.0,0.0,0.0,0.0,0.0,0.000589,0.000765,-0.0012,0.0,0.0,0.0,0.0,0.0,0.0,0.0,0.0,0.0,-0.106,-0.072,-9.594,0.0,0.0,0.0,0.0,0.0,0.0,0.0,0.0,0.0
1581281149749100140,255,1581281149748342275,imu,0.00656592652443,0.000248109908719,0.705914843222,0.708266236078,0.0,0.0,0.0,0.0,0.0,0.0,0.0,0.0,0.0,0.000553,0.000345,0.0,0.0,0.0,0.0,0.0,0.0,0.0,0.0,0.0,0.0,-0.094,-0.109,-9.584,0.0,0.0,0.0,0.0,0.0,0.0,0.0,0.0,0.0
1581281149774242424,256,1581281149773392915,imu,0.00656592435901,0.000248167207228,0.705921023985,0.708260075782,0.0,0.0,0.0,0.0,0.0,0.0,0.0,0.0,0.0,0.000471,0.000744,0.0007,0.0,0.0,0.0,0.0,0.0,0.0,0.0,0.0,0.0,-0.085,-0.088,-9.626,0.0,0.0,0.0,0.0,0.0,0.0,0.0,0.0,0.0
1581281149799337002,257,1581281149798345804,imu,0.00655974362362,0.000242006884155,0.705921026123,0.708260133054,0.0,0.0,0.0,0.0,0.0,0.0,0.0,0.0,0.0,-0.001444,-0.000116,-0.0004,0.0,0.0,0.0,0.0,0.0,0.0,0.0,0.0,0.0,-0.068,-0.084,-9.593,0.0,0.0,0.0,0.0,0.0,0.0,0.0,0.0,0.0
1581281149824115025,258,1581281149823412418,imu,0.00655360424394,0.000260529207747,0.705921019162,0.708260190256,0.0,0.0,0.0,0.0,0.0,0.0,0.0,0.0,0.0,0.000804,0.000431,-0.0004,0.0,0.0,0.0,0.0,0.0,0.0,0.0,0.0,0.0,-0.076,-0.102,-9.591,0.0,0.0,0.0,0.0,0.0,0.0,0.0,0.0,0.0
1581281149849223629,259,1581281149848465204,imu,0.00655358356584,0.000248187884445,0.705921023793,0.708260190264,0.0,0.0,0.0,0.0,0.0,0.0,0.0,0.0,0.0,-0.001099,0.000372,0.0,0.0,0.0,0.0,0.0,0.0,0.0,0.0,0.0,0.0,-0.077,-0.097,-9.587,0.0,0.0,0.0,0.0,0.0,0.0,0.0,0.0,0.0
1581281149874266536,260,1581281149873433351,imu,0.00655358356584,0.000248187884445,0.705921023793,0.708260190264,0.0,0.0,0.0,0.0,0.0,0.0,0.0,0.0,0.0,-0.00059,-0.001247,0.0001,0.0,0.0,0.0,0.0,0.0,0.0,0.0,0.0,0.0,-0.068,-0.099,-9.57,0.0,0.0,0.0,0.0,0.0,0.0,0.0,0.0,0.0
1581281149899001506,261,1581281149898386001,imu,0.00655976208187,0.00025440545223,0.705927202309,0.708253972696,0.0,0.0,0.0,0.0,0.0,0.0,0.0,0.0,0.0,4.5e-05,-0.000572,0.0005,0.0,0.0,0.0,0.0,0.0,0.0,0.0,0.0,0.0,-0.091,-0.094,-9.583,0.0,0.0,0.0,0.0,0.0,0.0,0.0,0.0,0.0
1581281149923981341,262,1581281149923438072,imu,0.00654744185792,0.000266767345196,0.705927197379,0.708254087062,0.0,0.0,0.0,0.0,0.0,0.0,0.0,0.0,0.0,-0.001561,0.000136,0.001,0.0,0.0,0.0,0.0,0.0,0.0,0.0,0.0,0.0,-0.098,-0.098,-9.599,0.0,0.0,0.0,0.0,0.0,0.0,0.0,0.0,0.0
1581281149948826508,263,1581281149948237419,imu,0.00655360197014,0.000260586398723,0.705927199871,0.708254029906,0.0,0.0,0.0,0.0,0.0,0.0,0.0,0.0,0.0,-0.00035,0.000469,0.0003,0.0,0.0,0.0,0.0,0.0,0.0,0.0,0.0,0.0,-0.089,-0.093,-9.593,0.0,0.0,0.0,0.0,0.0,0.0,0.0,0.0,0.0
1581281149973799844,264,1581281149973253965,imu,0.00655358139974,0.000248245075241,0.705927204502,0.708254029914,0.0,0.0,0.0,0.0,0.0,0.0,0.0,0.0,0.0,0.000698,-0.000413,0.0003,0.0,0.0,0.0,0.0,0.0,0.0,0.0,0.0,0.0,-0.118,-0.102,-9.593,0.0,0.0,0.0,0.0,0.0,0.0,0.0,0.0,0.0
1581281149998852343,265,1581281149998298406,imu,0.0065659221931,0.000248224505718,0.705927204693,0.708253915432,0.0,0.0,0.0,0.0,0.0,0.0,0.0,0.0,0.0,-0.00086,-0.000405,0.0001,0.0,0.0,0.0,0.0,0.0,0.0,0.0,0.0,0.0,-0.07,-0.104,-9.581,0.0,0.0,0.0,0.0,0.0,0.0,0.0,0.0,0.0
1581281150024189547,266,1581281150023281574,imu,0.00657826515019,0.000248146530014,0.705921024177,0.708259961085,0.0,0.0,0.0,0.0,0.0,0.0,0.0,0.0,0.0,0.000644,-0.000183,0.0005,0.0,0.0,0.0,0.0,0.0,0.0,0.0,0.0,0.0,-0.076,-0.119,-9.598,0.0,0.0,0.0,0.0,0.0,0.0,0.0,0.0,0.0
1581281150049034160,267,1581281150048243284,imu,0.00657826298445,0.000248203936198,0.705927204884,0.708253800735,0.0,0.0,0.0,0.0,0.0,0.0,0.0,0.0,0.0,-7.4e-05,-0.000686,0.001,0.0,0.0,0.0,0.0,0.0,0.0,0.0,0.0,0.0,-0.078,-0.102,-9.59,0.0,0.0,0.0,0.0,0.0,0.0,0.0,0.0,0.0
1581281150073855075,268,1581281150073186159,imu,0.00658442098188,0.00024208044959,0.705933387867,0.708247582905,0.0,0.0,0.0,0.0,0.0,0.0,0.0,0.0,0.0,-0.000159,-0.00026,0.0011,0.0,0.0,0.0,0.0,0.0,0.0,0.0,0.0,0.0,-0.082,-0.103,-9.596,0.0,0.0,0.0,0.0,0.0,0.0,0.0,0.0,0.0
1581281150098962315,269,1581281150098199367,imu,0.00659060160775,0.00024824088054,0.705933385728,0.708247525419,0.0,0.0,0.0,0.0,0.0,0.0,0.0,0.0,0.0,0.000998,7.6e-05,-0.001,0.0,0.0,0.0,0.0,0.0,0.0,0.0,0.0,0.0,-0.112,-0.097,-9.578,0.0,0.0,0.0,0.0,0.0,0.0,0.0,0.0,0.0
1581281150123888987,270,1581281150123214483,imu,0.00659675754466,0.000242175122945,0.705945749201,0.708235146915,0.0,0.0,0.0,0.0,0.0,0.0,0.0,0.0,0.0,-0.000598,-0.001641,0.0009,0.0,0.0,0.0,0.0,0.0,0.0,0.0,0.0,0.0,-0.092,-0.094,-9.591,0.0,0.0,0.0,0.0,0.0,0.0,0.0,0.0,0.0
1581281150149111095,271,1581281150148255825,imu,0.00659057496694,0.000236072097729,0.705951931779,0.70822904389,0.0,0.0,0.0,0.0,0.0,0.0,0.0,0.0,0.0,-0.000663,-0.000182,0.0001,0.0,0.0,0.0,0.0,0.0,0.0,0.0,0.0,0.0,-0.108,-0.106,-9.583,0.0,0.0,0.0,0.0,0.0,0.0,0.0,0.0,0.0
1581281150174044245,272,1581281150173202037,imu,0.00659673328498,0.000229948933562,0.705958114436,0.708222825737,0.0,0.0,0.0,0.0,0.0,0.0,0.0,0.0,0.0,0.000155,-0.000497,-0.0002,0.0,0.0,0.0,0.0,0.0,0.0,0.0,0.0,0.0,-0.099,-0.071,-9.602,0.0,0.0,0.0,0.0,0.0,0.0,0.0,0.0,0.0
1581281150199065870,273,1581281150198172092,imu,0.00660289170989,0.000223825876878,0.705964296986,0.708216607476,0.0,0.0,0.0,0.0,0.0,0.0,0.0,0.0,0.0,-0.000679,-0.001393,-0.0,0.0,0.0,0.0,0.0,0.0,0.0,0.0,0.0,0.0,-0.071,-0.117,-9.604,0.0,0.0,0.0,0.0,0.0,0.0,0.0,0.0,0.0
1581281150223985186,274,1581281150223179578,imu,0.00660289366289,0.00022376825577,0.705958116603,0.708222768149,0.0,0.0,0.0,0.0,0.0,0.0,0.0,0.0,0.0,0.000372,-4e-05,0.0004,0.0,0.0,0.0,0.0,0.0,0.0,0.0,0.0,0.0,-0.104,-0.097,-9.612,0.0,0.0,0.0,0.0,0.0,0.0,0.0,0.0,0.0
1581281150249548649,275,1581281150248190879,imu,0.0066275552014,0.000211386869096,0.705958120963,0.708222537254,0.0,0.0,0.0,0.0,0.0,0.0,0.0,0.0,0.0,0.000298,-0.001548,0.0011,0.0,0.0,0.0,0.0,0.0,0.0,0.0,0.0,0.0,-0.092,-0.097,-9.589,0.0,0.0,0.0,0.0,0.0,0.0,0.0,0.0,0.0
1581281150273970207,276,1581281150273203849,imu,0.00662137121071,0.000205341787052,0.705970483489,0.708210273662,0.0,0.0,0.0,0.0,0.0,0.0,0.0,0.0,0.0,-0.000197,-0.000181,0.0006,0.0,0.0,0.0,0.0,0.0,0.0,0.0,0.0,0.0,-0.076,-0.098,-9.584,0.0,0.0,0.0,0.0,0.0,0.0,0.0,0.0,0.0
1581281150298825608,277,1581281150298057556,imu,0.00661523054296,0.000223863682316,0.7059704775,0.708210331405,0.0,0.0,0.0,0.0,0.0,0.0,0.0,0.0,0.0,0.00026,-0.000337,0.0,0.0,0.0,0.0,0.0,0.0,0.0,0.0,0.0,0.0,-0.088,-0.094,-9.582,0.0,0.0,0.0,0.0,0.0,0.0,0.0,0.0,0.0
1581281150323952680,278,1581281150323134422,imu,0.00661521257207,0.000211464628762,0.705964301157,0.708216492139,0.0,0.0,0.0,0.0,0.0,0.0,0.0,0.0,0.0,-0.000639,-0.001113,-0.0002,0.0,0.0,0.0,0.0,0.0,0.0,0.0,0.0,0.0,-0.085,-0.077,-9.57,0.0,0.0,0.0,0.0,0.0,0.0,0.0,0.0,0.0
1581281150349149025,279,1581281150348100662,imu,0.00662137300241,0.00020528400468,0.705964303162,0.70821643439,0.0,0.0,0.0,0.0,0.0,0.0,0.0,0.0,0.0,0.000143,0.001097,0.0004,0.0,0.0,0.0,0.0,0.0,0.0,0.0,0.0,0.0,-0.082,-0.095,-9.584,0.0,0.0,0.0,0.0,0.0,0.0,0.0,0.0,0.0
1581281150374148580,280,1581281150373043298,imu,0.00660286993987,0.000211542173028,0.7059704813,0.708210446754,0.0,0.0,0.0,0.0,0.0,0.0,0.0,0.0,0.0,-0.001022,-0.001248,0.0002,0.0,0.0,0.0,0.0,0.0,0.0,0.0,0.0,0.0,-0.065,-0.089,-9.605,0.0,0.0,0.0,0.0,0.0,0.0,0.0,0.0,0.0
1581281150398728077,281,1581281150398020029,imu,0.00660903042515,0.000205361602705,0.705970483304,0.708210389113,0.0,0.0,0.0,0.0,0.0,0.0,0.0,0.0,0.0,-0.001097,0.000214,-0.0004,0.0,0.0,0.0,0.0,0.0,0.0,0.0,0.0,0.0,-0.064,-0.092,-9.595,0.0,0.0,0.0,0.0,0.0,0.0,0.0,0.0,0.0
1581281150423766523,282,1581281150423021316,imu,0.00662137479359,0.000205226222292,0.705958122781,0.708222595063,0.0,0.0,0.0,0.0,0.0,0.0,0.0,0.0,0.0,-0.000131,-0.000167,-0.0016,0.0,0.0,0.0,0.0,0.0,0.0,0.0,0.0,0.0,-0.084,-0.103,-9.624,0.0,0.0,0.0,0.0,0.0,0.0,0.0,0.0,0.0
1581281150448792112,283,1581281150448040008,imu,0.00662137658428,0.000205168439889,0.705951942346,0.708228755683,0.0,0.0,0.0,0.0,0.0,0.0,0.0,0.0,0.0,-2.8e-05,-0.000588,0.0,0.0,0.0,0.0,0.0,0.0,0.0,0.0,0.0,0.0,-0.094,-0.074,-9.591,0.0,0.0,0.0,0.0,0.0,0.0,0.0,0.0,0.0
1581281150473833807,284,1581281150473046541,imu,0.00662137658428,0.000205168439889,0.705951942346,0.708228755683,0.0,0.0,0.0,0.0,0.0,0.0,0.0,0.0,0.0,0.000628,0.000851,0.0006,0.0,0.0,0.0,0.0,0.0,0.0,0.0,0.0,0.0,-0.104,-0.092,-9.613,0.0,0.0,0.0,0.0,0.0,0.0,0.0,0.0,0.0
1581281150498956001,285,1581281150497964620,imu,0.0066337191573,0.000205090411046,0.705945762047,0.708234800583,0.0,0.0,0.0,0.0,0.0,0.0,0.0,0.0,0.0,-0.000713,0.000574,-0.0002,0.0,0.0,0.0,0.0,0.0,0.0,0.0,0.0,0.0,-0.074,-0.082,-9.602,0.0,0.0,0.0,0.0,0.0,0.0,0.0,0.0,0.0
1581281150523789334,286,1581281150522896528,imu,0.00663367708807,0.000180465652059,0.705951949642,0.708228640028,0.0,0.0,0.0,0.0,0.0,0.0,0.0,0.0,0.0,-0.000829,0.000118,0.0008,0.0,0.0,0.0,0.0,0.0,0.0,0.0,0.0,0.0,-0.085,-0.094,-9.613,0.0,0.0,0.0,0.0,0.0,0.0,0.0,0.0,0.0
1581281150548709542,287,1581281150547924280,imu,0.00663367708807,0.000180465652059,0.705951949642,0.708228640028,0.0,0.0,0.0,0.0,0.0,0.0,0.0,0.0,0.0,-0.000548,-0.000876,0.0001,0.0,0.0,0.0,0.0,0.0,0.0,0.0,0.0,0.0,-0.081,-0.085,-9.62,0.0,0.0,0.0,0.0,0.0,0.0,0.0,0.0,0.0
1581281150574366778,288,1581281150573604106,imu,0.00662135476168,0.000192884897598,0.705958126442,0.708222595069,0.0,0.0,0.0,0.0,0.0,0.0,0.0,0.0,0.0,0.000164,-0.000904,-0.0007,0.0,0.0,0.0,0.0,0.0,0.0,0.0,0.0,0.0,-0.124,-0.093,-9.621,0.0,0.0,0.0,0.0,0.0,0.0,0.0,0.0,0.0
1581281150598653304,289,1581281150597872018,imu,0.00662751350802,0.000186762055682,0.705964308667,0.708216376592,0.0,0.0,0.0,0.0,0.0,0.0,0.0,0.0,0.0,0.00022,-5.7e-05,0.0004,0.0,0.0,0.0,0.0,0.0,0.0,0.0,0.0,0.0,-0.06,-0.106,-9.577,0.0,0.0,0.0,0.0,0.0,0.0,0.0,0.0,0.0
1581281150624444065,290,1581281150623615026,imu,0.00662135307819,0.000192942679812,0.705964306823,0.708216434395,0.0,0.0,0.0,0.0,0.0,0.0,0.0,0.0,0.0,-0.001511,-0.000245,0.0002,0.0,0.0,0.0,0.0,0.0,0.0,0.0,0.0,0.0,-0.084,-0.119,-9.581,0.0,0.0,0.0,0.0,0.0,0.0,0.0,0.0,0.0
1581281150648729646,291,1581281150647819280,imu,0.00660901060863,0.000193020277663,0.705970486966,0.708210389119,0.0,0.0,0.0,0.0,0.0,0.0,0.0,0.0,0.0,0.000613,0.001116,0.0014,0.0,0.0,0.0,0.0,0.0,0.0,0.0,0.0,0.0,-0.095,-0.088,-9.591,0.0,0.0,0.0,0.0,0.0,0.0,0.0,0.0,0.0
1581281150674286662,292,1581281150673553466,imu,0.00659048951826,0.000186879338603,0.705970488438,0.708210561894,0.0,0.0,0.0,0.0,0.0,0.0,0.0,0.0,0.0,-0.001086,0.000744,0.0006,0.0,0.0,0.0,0.0,0.0,0.0,0.0,0.0,0.0,-0.092,-0.095,-9.618,0.0,0.0,0.0,0.0,0.0,0.0,0.0,0.0,0.0
1581281150699551412,293,1581281150698529243,imu,0.00658432903147,0.000193059908977,0.705970486596,0.708210619374,0.0,0.0,0.0,0.0,0.0,0.0,0.0,0.0,0.0,-0.001001,-0.000861,0.001,0.0,0.0,0.0,0.0,0.0,0.0,0.0,0.0,0.0,-0.085,-0.096,-9.598,0.0,0.0,0.0,0.0,0.0,0.0,0.0,0.0,0.0
1581281150725290558,294,1581281150723531961,imu,0.00658434884799,0.000205401234019,0.705970482934,0.708210619369,0.0,0.0,0.0,0.0,0.0,0.0,0.0,0.0,0.0,0.000896,-0.000104,0.0008,0.0,0.0,0.0,0.0,0.0,0.0,0.0,0.0,0.0,-0.091,-0.096,-9.62,0.0,0.0,0.0,0.0,0.0,0.0,0.0,0.0,0.0
1581281150749348225,295,1581281150748453140,imu,0.00658434705528,0.000205458693294,0.705976663211,0.708204458587,0.0,0.0,0.0,0.0,0.0,0.0,0.0,0.0,0.0,-0.000142,0.000365,0.0018,0.0,0.0,0.0,0.0,0.0,0.0,0.0,0.0,0.0,-0.064,-0.093,-9.574,0.0,0.0,0.0,0.0,0.0,0.0,0.0,0.0,0.0
1581281150774303571,296,1581281150773481130,imu,0.00658436866451,0.000217742558995,0.705970479057,0.708210619362,0.0,0.0,0.0,0.0,0.0,0.0,0.0,0.0,0.0,0.001222,-0.001513,-0.0005,0.0,0.0,0.0,0.0,0.0,0.0,0.0,0.0,0.0,-0.086,-0.115,-9.608,0.0,0.0,0.0,0.0,0.0,0.0,0.0,0.0,0.0
1581281150799359899,297,1581281150798461914,imu,0.00658438848103,0.000230083883901,0.705970474964,0.708210619356,0.0,0.0,0.0,0.0,0.0,0.0,0.0,0.0,0.0,-0.000381,0.000608,-0.0002,0.0,0.0,0.0,0.0,0.0,0.0,0.0,0.0,0.0,-0.096,-0.093,-9.582,0.0,0.0,0.0,0.0,0.0,0.0,0.0,0.0,0.0
1581281150824263214,298,1581281150823488473,imu,0.00659054701364,0.000223960827008,0.705976657406,0.708204401094,0.0,0.0,0.0,0.0,0.0,0.0,0.0,0.0,0.0,0.000289,-0.000603,0.0003,0.0,0.0,0.0,0.0,0.0,0.0,0.0,0.0,0.0,-0.119,-0.083,-9.6,0.0,0.0,0.0,0.0,0.0,0.0,0.0,0.0,0.0
1581281150849116264,299,1581281150848337411,imu,0.00659054701364,0.000223960827008,0.705976657406,0.708204401094,0.0,0.0,0.0,0.0,0.0,0.0,0.0,0.0,0.0,0.000421,-0.000209,-0.0002,0.0,0.0,0.0,0.0,0.0,0.0,0.0,0.0,0.0,-0.09,-0.107,-9.592,0.0,0.0,0.0,0.0,0.0,0.0,0.0,0.0,0.0
1581281150874348251,300,1581281150873428821,imu,0.00659054701364,0.000223960827008,0.705976657406,0.708204401094,0.0,0.0,0.0,0.0,0.0,0.0,0.0,0.0,0.0,-0.000891,-0.001553,-0.001,0.0,0.0,0.0,0.0,0.0,0.0,0.0,0.0,0.0,-0.068,-0.097,-9.589,0.0,0.0,0.0,0.0,0.0,0.0,0.0,0.0,0.0
1581281150899161359,301,1581281150898334026,imu,0.00658438647292,0.000230141343522,0.705976655241,0.708204458574,0.0,0.0,0.0,0.0,0.0,0.0,0.0,0.0,0.0,-9.3e-05,0.000813,0.0007,0.0,0.0,0.0,0.0,0.0,0.0,0.0,0.0,0.0,-0.113,-0.097,-9.591,0.0,0.0,0.0,0.0,0.0,0.0,0.0,0.0,0.0
1581281150924098381,302,1581281150923416376,imu,0.0065843667641,0.000217800018443,0.705976659334,0.708204458581,0.0,0.0,0.0,0.0,0.0,0.0,0.0,0.0,0.0,-0.000921,0.001975,0.0006,0.0,0.0,0.0,0.0,0.0,0.0,0.0,0.0,0.0,-0.082,-0.102,-9.56,0.0,0.0,0.0,0.0,0.0,0.0,0.0,0.0,0.0
1581281150948870850,303,1581281150948284149,imu,0.00657818651406,0.000211639209861,0.705976661207,0.708204516013,0.0,0.0,0.0,0.0,0.0,0.0,0.0,0.0,0.0,0.00032,7e-05,0.0,0.0,0.0,0.0,0.0,0.0,0.0,0.0,0.0,0.0,-0.087,-0.096,-9.62,0.0,0.0,0.0,0.0,0.0,0.0,0.0,0.0,0.0
1581281150973938164,304,1581281150973299980,imu,0.00657200626352,0.000205478401263,0.705976663027,0.708204573392,0.0,0.0,0.0,0.0,0.0,0.0,0.0,0.0,0.0,-0.002018,0.000595,0.0015,0.0,0.0,0.0,0.0,0.0,0.0,0.0,0.0,0.0,-0.087,-0.073,-9.583,0.0,0.0,0.0,0.0,0.0,0.0,0.0,0.0,0.0
1581281150999238845,305,1581281150998316526,imu,0.00657816854419,0.000199240479337,0.7059704847,0.708210676801,0.0,0.0,0.0,0.0,0.0,0.0,0.0,0.0,0.0,0.00011,-2.9e-05,-0.0004,0.0,0.0,0.0,0.0,0.0,0.0,0.0,0.0,0.0,-0.063,-0.082,-9.562,0.0,0.0,0.0,0.0,0.0,0.0,0.0,0.0,0.0
1581281151023889875,306,1581281151023255825,imu,0.0065720080564,0.000205421049681,0.70597048275,0.708210734173,0.0,0.0,0.0,0.0,0.0,0.0,0.0,0.0,0.0,-0.000653,0.001214,0.0007,0.0,0.0,0.0,0.0,0.0,0.0,0.0,0.0,0.0,-0.099,-0.102,-9.615,0.0,0.0,0.0,0.0,0.0,0.0,0.0,0.0,0.0
1581281151049071488,307,1581281151048292160,imu,0.00657816854419,0.000199240479337,0.7059704847,0.708210676801,0.0,0.0,0.0,0.0,0.0,0.0,0.0,0.0,0.0,-0.000121,0.000549,-0.0003,0.0,0.0,0.0,0.0,0.0,0.0,0.0,0.0,0.0,-0.105,-0.1,-9.597,0.0,0.0,0.0,0.0,0.0,0.0,0.0,0.0,0.0
1581281151074121090,308,1581281151073299407,imu,0.0065905291513,0.000211561988686,0.705970481115,0.708210561882,0.0,0.0,0.0,0.0,0.0,0.0,0.0,0.0,0.0,-9.4e-05,-0.001006,-0.0,0.0,0.0,0.0,0.0,0.0,0.0,0.0,0.0,0.0,-0.09,-0.094,-9.574,0.0,0.0,0.0,0.0,0.0,0.0,0.0,0.0,0.0
1581281151098971886,309,1581281151098174571,imu,0.00659054505896,0.000224018340372,0.705982837628,0.708198240259,0.0,0.0,0.0,0.0,0.0,0.0,0.0,0.0,0.0,0.000373,-0.000829,0.0006,0.0,0.0,0.0,0.0,0.0,0.0,0.0,0.0,0.0,-0.098,-0.095,-9.574,0.0,0.0,0.0,0.0,0.0,0.0,0.0,0.0,0.0
1581281151124016252,310,1581281151123192548,imu,0.0066029033863,0.000236397686528,0.705989013779,0.708191964235,0.0,0.0,0.0,0.0,0.0,0.0,0.0,0.0,0.0,0.000343,0.001518,0.001,0.0,0.0,0.0,0.0,0.0,0.0,0.0,0.0,0.0,-0.061,-0.081,-9.555,0.0,0.0,0.0,0.0,0.0,0.0,0.0,0.0,0.0
1581281151149013175,311,1581281151148154973,imu,0.0065905625972,0.000236417179104,0.705989013597,0.708192079363,0.0,0.0,0.0,0.0,0.0,0.0,0.0,0.0,0.0,-0.001544,-0.000929,0.0005,0.0,0.0,0.0,0.0,0.0,0.0,0.0,0.0,0.0,-0.074,-0.087,-9.599,0.0,0.0,0.0,0.0,0.0,0.0,0.0,0.0,0.0
1581281151173819106,312,1581281151173078775,imu,0.00658438245519,0.00023025626271,0.705989015633,0.708192136849,0.0,0.0,0.0,0.0,0.0,0.0,0.0,0.0,0.0,-0.000617,-0.00107,0.0008,0.0,0.0,0.0,0.0,0.0,0.0,0.0,0.0,0.0,-0.103,-0.088,-9.574,0.0,0.0,0.0,0.0,0.0,0.0,0.0,0.0,0.0
1581281151199321805,313,1581281151198175191,imu,0.00657824347027,0.000248720590998,0.70598282883,0.708198355158,0.0,0.0,0.0,0.0,0.0,0.0,0.0,0.0,0.0,4.9e-05,0.00027,-0.0008,0.0,0.0,0.0,0.0,0.0,0.0,0.0,0.0,0.0,-0.106,-0.092,-9.614,0.0,0.0,0.0,0.0,0.0,0.0,0.0,0.0,0.0
1581281151224008035,314,1581281151223211526,imu,0.00657208287462,0.000254901053676,0.70598282645,0.70819841253,0.0,0.0,0.0,0.0,0.0,0.0,0.0,0.0,0.0,-0.000267,0.000287,0.0009,0.0,0.0,0.0,0.0,0.0,0.0,0.0,0.0,0.0,-0.1,-0.095,-9.588,0.0,0.0,0.0,0.0,0.0,0.0,0.0,0.0,0.0
1581281151249049007,315,1581281151248057365,imu,0.00656591999984,0.000261138814806,0.705989004188,0.708192308958,0.0,0.0,0.0,0.0,0.0,0.0,0.0,0.0,0.0,0.00134,0.002117,0.0004,0.0,0.0,0.0,0.0,0.0,0.0,0.0,0.0,0.0,-0.104,-0.087,-9.612,0.0,0.0,0.0,0.0,0.0,0.0,0.0,0.0,0.0
1581281151273944267,316,1581281151273150920,imu,0.00656590050642,0.000248797489575,0.705989008819,0.708192308965,0.0,0.0,0.0,0.0,0.0,0.0,0.0,0.0,0.0,-0.000358,0.000541,0.0009,0.0,0.0,0.0,0.0,0.0,0.0,0.0,0.0,0.0,-0.1,-0.098,-9.628,0.0,0.0,0.0,0.0,0.0,0.0,0.0,0.0,0.0
1581281151298889859,317,1581281151298089981,imu,0.00655973763048,0.000255035143013,0.705995186557,0.708186205286,0.0,0.0,0.0,0.0,0.0,0.0,0.0,0.0,0.0,0.001653,0.001652,0.0008,0.0,0.0,0.0,0.0,0.0,0.0,0.0,0.0,0.0,-0.075,-0.102,-9.57,0.0,0.0,0.0,0.0,0.0,0.0,0.0,0.0,0.0
1581281151323825202,318,1581281151323071718,imu,0.00655357464567,0.000261272688887,0.706001364189,0.708180101499,0.0,0.0,0.0,0.0,0.0,0.0,0.0,0.0,0.0,-0.001583,-0.000251,0.0013,0.0,0.0,0.0,0.0,0.0,0.0,0.0,0.0,0.0,-0.057,-0.094,-9.601,0.0,0.0,0.0,0.0,0.0,0.0,0.0,0.0,0.0
1581281151348847438,319,1581281151348080158,imu,0.00654741388621,0.00026745299024,0.706001361703,0.708180158656,0.0,0.0,0.0,0.0,0.0,0.0,0.0,0.0,0.0,-0.000852,-0.000235,0.0009,0.0,0.0,0.0,0.0,0.0,0.0,0.0,0.0,0.0,-0.079,-0.101,-9.601,0.0,0.0,0.0,0.0,0.0,0.0,0.0,0.0,0.0
1581281151374068282,320,1581281151373103380,imu,0.00652891232682,0.000273652568778,0.706001358986,0.708180329809,0.0,0.0,0.0,0.0,0.0,0.0,0.0,0.0,0.0,0.00041,0.000335,-0.0005,0.0,0.0,0.0,0.0,0.0,0.0,0.0,0.0,0.0,-0.078,-0.107,-9.614,0.0,0.0,0.0,0.0,0.0,0.0,0.0,0.0,0.0
1581281151398944278,321,1581281151397911548,imu,0.0065289099385,0.000273709544276,0.706007538998,0.708174168758,0.0,0.0,0.0,0.0,0.0,0.0,0.0,0.0,0.0,-0.000255,-0.000655,-0.0,0.0,0.0,0.0,0.0,0.0,0.0,0.0,0.0,0.0,-0.074,-0.119,-9.578,0.0,0.0,0.0,0.0,0.0,0.0,0.0,0.0,0.0
1581281151424353893,322,1581281151423728942,imu,0.00651659080343,0.000286013171386,0.706001353746,0.708180443637,0.0,0.0,0.0,0.0,0.0,0.0,0.0,0.0,0.0,-0.000452,0.001021,-0.0,0.0,0.0,0.0,0.0,0.0,0.0,0.0,0.0,0.0,-0.097,-0.076,-9.589,0.0,0.0,0.0,0.0,0.0,0.0,0.0,0.0,0.0
1581281151448925951,323,1581281151448023557,imu,0.00651043004098,0.000292193472657,0.706001351046,0.70818050047,0.0,0.0,0.0,0.0,0.0,0.0,0.0,0.0,0.0,0.000239,1.2e-05,0.0016,0.0,0.0,0.0,0.0,0.0,0.0,0.0,0.0,0.0,-0.076,-0.105,-9.601,0.0,0.0,0.0,0.0,0.0,0.0,0.0,0.0,0.0
1581281151473869936,324,1581281151473012685,imu,0.00650424500682,0.00028614596913,0.706013713543,0.708168235101,0.0,0.0,0.0,0.0,0.0,0.0,0.0,0.0,0.0,-0.001061,-0.000108,-0.0004,0.0,0.0,0.0,0.0,0.0,0.0,0.0,0.0,0.0,-0.1,-0.107,-9.59,0.0,0.0,0.0,0.0,0.0,0.0,0.0,0.0,0.0
1581281151498622869,325,1581281151497997760,imu,0.00651042494025,0.000292307101052,0.706013711019,0.708168178314,0.0,0.0,0.0,0.0,0.0,0.0,0.0,0.0,0.0,0.000578,0.001542,0.0,0.0,0.0,0.0,0.0,0.0,0.0,0.0,0.0,0.0,-0.085,-0.107,-9.608,0.0,0.0,0.0,0.0,0.0,0.0,0.0,0.0,0.0
1581281151523893843,326,1581281151522972583,imu,0.00651658331339,0.000286183775236,0.706019893625,0.708161960322,0.0,0.0,0.0,0.0,0.0,0.0,0.0,0.0,0.0,-0.001061,0.00097,0.001,0.0,0.0,0.0,0.0,0.0,0.0,0.0,0.0,0.0,-0.1,-0.077,-9.614,0.0,0.0,0.0,0.0,0.0,0.0,0.0,0.0,0.0
1581281151548688058,327,1581281151547930717,imu,0.00652274423713,0.000280003635233,0.70601989627,0.708161903435,0.0,0.0,0.0,0.0,0.0,0.0,0.0,0.0,0.0,-0.000328,-0.000521,-0.0001,0.0,0.0,0.0,0.0,0.0,0.0,0.0,0.0,0.0,-0.077,-0.099,-9.589,0.0,0.0,0.0,0.0,0.0,0.0,0.0,0.0,0.0
1581281151574816513,328,1581281151573682785,imu,0.00650426146441,0.000298544055175,0.706019888173,0.708162073934,0.0,0.0,0.0,0.0,0.0,0.0,0.0,0.0,0.0,-0.000205,-0.00011,-0.0002,0.0,0.0,0.0,0.0,0.0,0.0,0.0,0.0,0.0,-0.078,-0.072,-9.604,0.0,0.0,0.0,0.0,0.0,0.0,0.0,0.0,0.0
1581281151598729109,329,1581281151597891092,imu,0.006522765743,0.000292288039231,0.706013711195,0.708168064586,0.0,0.0,0.0,0.0,0.0,0.0,0.0,0.0,0.0,-0.000222,0.00096,-0.0003,0.0,0.0,0.0,0.0,0.0,0.0,0.0,0.0,0.0,-0.08,-0.075,-9.606,0.0,0.0,0.0,0.0,0.0,0.0,0.0,0.0,0.0
1581281151624718178,330,1581281151623644828,imu,0.00652276064062,0.000292401882925,0.706026070952,0.708155742214,0.0,0.0,0.0,0.0,0.0,0.0,0.0,0.0,0.0,-0.000957,-0.001088,0.0007,0.0,0.0,0.0,0.0,0.0,0.0,0.0,0.0,0.0,-0.089,-0.094,-9.579,0.0,0.0,0.0,0.0,0.0,0.0,0.0,0.0,0.0
1581281151649742466,331,1581281151647864341,imu,0.00651659966295,0.000298581969117,0.7060260682,0.708155799101,0.0,0.0,0.0,0.0,0.0,0.0,0.0,0.0,0.0,0.000815,0.000806,0.0017,0.0,0.0,0.0,0.0,0.0,0.0,0.0,0.0,0.0,-0.062,-0.098,-9.603,0.0,0.0,0.0,0.0,0.0,0.0,0.0,0.0,0.0
1581281151674355276,332,1581281151673613548,imu,0.00651043602498,0.000304818869571,0.706032245192,0.708149694667,0.0,0.0,0.0,0.0,0.0,0.0,0.0,0.0,0.0,0.000799,0.000555,-0.0005,0.0,0.0,0.0,0.0,0.0,0.0,0.0,0.0,0.0,-0.08,-0.094,-9.604,0.0,0.0,0.0,0.0,0.0,0.0,0.0,0.0,0.0
1581281151699290803,333,1581281151698548555,imu,0.00651661308255,0.0003110370314,0.70603842225,0.708143476505,0.0,0.0,0.0,0.0,0.0,0.0,0.0,0.0,0.0,0.000317,0.001198,0.0013,0.0,0.0,0.0,0.0,0.0,0.0,0.0,0.0,0.0,-0.092,-0.109,-9.591,0.0,0.0,0.0,0.0,0.0,0.0,0.0,0.0,0.0
1581281151724174381,334,1581281151723602294,imu,0.00651661579661,0.000310980163211,0.706032242505,0.708149637826,0.0,0.0,0.0,0.0,0.0,0.0,0.0,0.0,0.0,0.000881,-0.000366,-0.001,0.0,0.0,0.0,0.0,0.0,0.0,0.0,0.0,0.0,-0.084,-0.1,-9.566,0.0,0.0,0.0,0.0,0.0,0.0,0.0,0.0,0.0
1581281151749322224,335,1581281151748513221,imu,0.00652279279992,0.000317198378945,0.706038419508,0.70814341961,0.0,0.0,0.0,0.0,0.0,0.0,0.0,0.0,0.0,0.000473,-0.000195,0.0011,0.0,0.0,0.0,0.0,0.0,0.0,0.0,0.0,0.0,-0.049,-0.089,-9.603,0.0,0.0,0.0,0.0,0.0,0.0,0.0,0.0,0.0
1581281151774412470,336,1581281151773534774,imu,0.00651661579661,0.000310980163211,0.706032242505,0.708149637826,0.0,0.0,0.0,0.0,0.0,0.0,0.0,0.0,0.0,-0.000891,0.001298,-0.0001,0.0,0.0,0.0,0.0,0.0,0.0,0.0,0.0,0.0,-0.069,-0.099,-9.579,0.0,0.0,0.0,0.0,0.0,0.0,0.0,0.0,0.0
1581281151799187968,337,1581281151798453092,imu,0.00651663171438,0.000323378357511,0.706038416542,0.708143476497,0.0,0.0,0.0,0.0,0.0,0.0,0.0,0.0,0.0,-0.000606,-0.000415,-0.0003,0.0,0.0,0.0,0.0,0.0,0.0,0.0,0.0,0.0,-0.072,-0.073,-9.569,0.0,0.0,0.0,0.0,0.0,0.0,0.0,0.0,0.0
1581281151824603322,338,1581281151823523759,imu,0.00649809255929,0.000304894314881,0.706038424766,0.708143646859,0.0,0.0,0.0,0.0,0.0,0.0,0.0,0.0,0.0,-0.000624,-0.000729,0.0002,0.0,0.0,0.0,0.0,0.0,0.0,0.0,0.0,0.0,-0.094,-0.106,-9.579,0.0,0.0,0.0,0.0,0.0,0.0,0.0,0.0,0.0
1581281151849442425,339,1581281151848487138,imu,0.00651659184385,0.000298752573195,0.706044607433,0.708137315139,0.0,0.0,0.0,0.0,0.0,0.0,0.0,0.0,0.0,-0.000781,0.000406,-0.0001,0.0,0.0,0.0,0.0,0.0,0.0,0.0,0.0,0.0,-0.097,-0.099,-9.612,0.0,0.0,0.0,0.0,0.0,0.0,0.0,0.0,0.0
1581281151874069308,340,1581281151873426675,imu,0.00651041217975,0.000292591171651,0.706044610013,0.70813737198,0.0,0.0,0.0,0.0,0.0,0.0,0.0,0.0,0.0,0.000241,0.000779,0.0,0.0,0.0,0.0,0.0,0.0,0.0,0.0,0.0,0.0,-0.081,-0.089,-9.574,0.0,0.0,0.0,0.0,0.0,0.0,0.0,0.0,0.0
1581281151899054171,341,1581281151898425817,imu,0.00650426956343,0.000311112422919,0.70604460177,0.708137428751,0.0,0.0,0.0,0.0,0.0,0.0,0.0,0.0,0.0,8.7e-05,-0.000875,0.001,0.0,0.0,0.0,0.0,0.0,0.0,0.0,0.0,0.0,-0.085,-0.083,-9.606,0.0,0.0,0.0,0.0,0.0,0.0,0.0,0.0,0.0
1581281151923629977,342,1581281151923285007,imu,0.0065104280426,0.000304989312283,0.706050784266,0.708131210544,0.0,0.0,0.0,0.0,0.0,0.0,0.0,0.0,0.0,-0.000411,0.000278,0.0003,0.0,0.0,0.0,0.0,0.0,0.0,0.0,0.0,0.0,-0.069,-0.094,-9.595,0.0,0.0,0.0,0.0,0.0,0.0,0.0,0.0,0.0
1581281151949065584,343,1581281151948325634,imu,0.00651660765294,0.000311150767707,0.706050781577,0.708131153702,0.0,0.0,0.0,0.0,0.0,0.0,0.0,0.0,0.0,0.000454,-0.000127,0.0008,0.0,0.0,0.0,0.0,0.0,0.0,0.0,0.0,0.0,-0.059,-0.111,-9.582,0.0,0.0,0.0,0.0,0.0,0.0,0.0,0.0,0.0
1581281151974128667,344,1581281151973405122,imu,0.00652276884633,0.000304970896625,0.706050784436,0.708131096816,0.0,0.0,0.0,0.0,0.0,0.0,0.0,0.0,0.0,-0.001947,-0.000266,0.0011,0.0,0.0,0.0,0.0,0.0,0.0,0.0,0.0,0.0,-0.093,-0.09,-9.6,0.0,0.0,0.0,0.0,0.0,0.0,0.0,0.0,0.0
1581281151999168186,345,1581281151998316764,imu,0.00651658662865,0.000298866309134,0.706056966653,0.708124992228,0.0,0.0,0.0,0.0,0.0,0.0,0.0,0.0,0.0,-0.000269,0.000418,0.0,0.0,0.0,0.0,0.0,0.0,0.0,0.0,0.0,0.0,-0.073,-0.073,-9.593,0.0,0.0,0.0,0.0,0.0,0.0,0.0,0.0,0.0
1581281152023876458,346,1581281152023257255,imu,0.00651655240362,0.000274126787835,0.706050797409,0.708131153726,0.0,0.0,0.0,0.0,0.0,0.0,0.0,0.0,0.0,-0.000482,-2.6e-05,0.0001,0.0,0.0,0.0,0.0,0.0,0.0,0.0,0.0,0.0,-0.081,-0.088,-9.595,0.0,0.0,0.0,0.0,0.0,0.0,0.0,0.0,0.0
1581281152049328918,347,1581281152048316478,imu,0.00650419318246,0.000261803876692,0.706050802086,0.708131267353,0.0,0.0,0.0,0.0,0.0,0.0,0.0,0.0,0.0,-0.00139,0.001004,0.0008,0.0,0.0,0.0,0.0,0.0,0.0,0.0,0.0,0.0,-0.106,-0.109,-9.599,0.0,0.0,0.0,0.0,0.0,0.0,0.0,0.0,0.0
1581281152074251578,348,1581281152073242425,imu,0.00652271827258,0.000267833073746,0.706038440617,0.708143419642,0.0,0.0,0.0,0.0,0.0,0.0,0.0,0.0,0.0,0.001138,-0.000451,-0.0007,0.0,0.0,0.0,0.0,0.0,0.0,0.0,0.0,0.0,-0.096,-0.105,-9.604,0.0,0.0,0.0,0.0,0.0,0.0,0.0,0.0,0.0
1581281152099057273,349,1581281152098257303,imu,0.00652887935762,0.000261653094974,0.7060384431,0.708143362701,0.0,0.0,0.0,0.0,0.0,0.0,0.0,0.0,0.0,1e-06,-3.8e-05,0.0004,0.0,0.0,0.0,0.0,0.0,0.0,0.0,0.0,0.0,-0.07,-0.102,-9.613,0.0,0.0,0.0,0.0,0.0,0.0,0.0,0.0,0.0
1581281152123977970,350,1581281152123185396,imu,0.00653502181033,0.000243131789581,0.706038450051,0.708143305713,0.0,0.0,0.0,0.0,0.0,0.0,0.0,0.0,0.0,0.000302,0.000293,-0.0001,0.0,0.0,0.0,0.0,0.0,0.0,0.0,0.0,0.0,-0.074,-0.089,-9.591,0.0,0.0,0.0,0.0,0.0,0.0,0.0,0.0,0.0
1581281152148856744,351,1581281152148166656,imu,0.00652885854988,0.000249368743461,0.70604462742,0.708137201333,0.0,0.0,0.0,0.0,0.0,0.0,0.0,0.0,0.0,0.00029,-0.000496,0.0001,0.0,0.0,0.0,0.0,0.0,0.0,0.0,0.0,0.0,-0.108,-0.105,-9.605,0.0,0.0,0.0,0.0,0.0,0.0,0.0,0.0,0.0
1581281152174115690,352,1581281152173238515,imu,0.00653503821249,0.000255530145159,0.706044625217,0.708137144331,0.0,0.0,0.0,0.0,0.0,0.0,0.0,0.0,0.0,0.000526,4.2e-05,0.0013,0.0,0.0,0.0,0.0,0.0,0.0,0.0,0.0,0.0,-0.082,-0.084,-9.606,0.0,0.0,0.0,0.0,0.0,0.0,0.0,0.0,0.0
1581281152199122703,353,1581281152198260307,imu,0.00653501968835,0.000243188818395,0.706044629741,0.708137144338,0.0,0.0,0.0,0.0,0.0,0.0,0.0,0.0,0.0,-0.002149,-0.001099,0.0009,0.0,0.0,0.0,0.0,0.0,0.0,0.0,0.0,0.0,-0.091,-0.089,-9.576,0.0,0.0,0.0,0.0,0.0,0.0,0.0,0.0,0.0
1581281152224400379,354,1581281152223242282,imu,0.0065473399492,0.000230886104537,0.706050813854,0.708130868757,0.0,0.0,0.0,0.0,0.0,0.0,0.0,0.0,0.0,0.000546,0.000205,0.0007,0.0,0.0,0.0,0.0,0.0,0.0,0.0,0.0,0.0,-0.078,-0.094,-9.605,0.0,0.0,0.0,0.0,0.0,0.0,0.0,0.0,0.0
1581281152249108074,355,1581281152248328447,imu,0.0065535357964,0.000249446077584,0.706056986977,0.708124650105,0.0,0.0,0.0,0.0,0.0,0.0,0.0,0.0,0.0,0.000309,0.000523,-0.0008,0.0,0.0,0.0,0.0,0.0,0.0,0.0,0.0,0.0,-0.08,-0.099,-9.576,0.0,0.0,0.0,0.0,0.0,0.0,0.0,0.0,0.0
1581281152273976911,356,1581281152273199081,imu,0.00655355410514,0.000261787404629,0.706056982346,0.708124650098,0.0,0.0,0.0,0.0,0.0,0.0,0.0,0.0,0.0,0.00055,0.001221,-0.0002,0.0,0.0,0.0,0.0,0.0,0.0,0.0,0.0,0.0,-0.081,-0.092,-9.586,0.0,0.0,0.0,0.0,0.0,0.0,0.0,0.0,0.0
1581281152299752224,357,1581281152298085451,imu,0.00655971534948,0.000255607587139,0.706056984774,0.708124592887,0.0,0.0,0.0,0.0,0.0,0.0,0.0,0.0,0.0,0.000342,-0.000567,0.0009,0.0,0.0,0.0,0.0,0.0,0.0,0.0,0.0,0.0,-0.077,-0.107,-9.606,0.0,0.0,0.0,0.0,0.0,0.0,0.0,0.0,0.0
1581281152323947259,358,1581281152323159456,imu,0.00655355638942,0.000261730214071,0.706050802766,0.70813081158,0.0,0.0,0.0,0.0,0.0,0.0,0.0,0.0,0.0,-0.001219,0.001029,0.0,0.0,0.0,0.0,0.0,0.0,0.0,0.0,0.0,0.0,-0.116,-0.113,-9.586,0.0,0.0,0.0,0.0,0.0,0.0,0.0,0.0,0.0
1581281152349095007,359,1581281152348297834,imu,0.00655971534948,0.000255607587139,0.706056984774,0.708124592887,0.0,0.0,0.0,0.0,0.0,0.0,0.0,0.0,0.0,-0.000905,-0.000652,-0.0013,0.0,0.0,0.0,0.0,0.0,0.0,0.0,0.0,0.0,-0.078,-0.098,-9.612,0.0,0.0,0.0,0.0,0.0,0.0,0.0,0.0,0.0
1581281152373928899,360,1581281152373066902,imu,0.00656589490206,0.000261769096675,0.706056982516,0.708124535616,0.0,0.0,0.0,0.0,0.0,0.0,0.0,0.0,0.0,-0.000631,-8.8e-05,-0.0002,0.0,0.0,0.0,0.0,0.0,0.0,0.0,0.0,0.0,-0.074,-0.102,-9.584,0.0,0.0,0.0,0.0,0.0,0.0,0.0,0.0,0.0
1581281152400157819,361,1581281152398233652,imu,0.00655973131968,0.000268006158609,0.706063159561,0.708118431344,0.0,0.0,0.0,0.0,0.0,0.0,0.0,0.0,0.0,0.000455,-4.8e-05,-0.0003,0.0,0.0,0.0,0.0,0.0,0.0,0.0,0.0,0.0,-0.087,-0.102,-9.569,0.0,0.0,0.0,0.0,0.0,0.0,0.0,0.0,0.0
1581281152423809924,362,1581281152423013687,imu,0.00655357241389,0.000274128731592,0.7060569775,0.708124650091,0.0,0.0,0.0,0.0,0.0,0.0,0.0,0.0,0.0,-0.000901,0.000673,-0.0016,0.0,0.0,0.0,0.0,0.0,0.0,0.0,0.0,0.0,-0.063,-0.11,-9.561,0.0,0.0,0.0,0.0,0.0,0.0,0.0,0.0,0.0
1581281152449089661,363,1581281152448015928,imu,0.00654123161497,0.000274147039549,0.70605697733,0.708124764357,0.0,0.0,0.0,0.0,0.0,0.0,0.0,0.0,0.0,-0.00045,0.000746,0.0011,0.0,0.0,0.0,0.0,0.0,0.0,0.0,0.0,0.0,-0.096,-0.102,-9.591,0.0,0.0,0.0,0.0,0.0,0.0,0.0,0.0,0.0
1581281152473928133,364,1581281152473051548,imu,0.00653506792257,0.000280383886214,0.70606315427,0.708118659869,0.0,0.0,0.0,0.0,0.0,0.0,0.0,0.0,0.0,-0.000352,0.002175,0.0011,0.0,0.0,0.0,0.0,0.0,0.0,0.0,0.0,0.0,-0.086,-0.119,-9.609,0.0,0.0,0.0,0.0,0.0,0.0,0.0,0.0,0.0
1581281152498886265,365,1581281152498091936,imu,0.00654124742338,0.000286545449588,0.706063151796,0.708118602813,0.0,0.0,0.0,0.0,0.0,0.0,0.0,0.0,0.0,0.000541,-0.000489,0.0007,0.0,0.0,0.0,0.0,0.0,0.0,0.0,0.0,0.0,-0.09,-0.087,-9.583,0.0,0.0,0.0,0.0,0.0,0.0,0.0,0.0,0.0
1581281152523801627,366,1581281152522970199,imu,0.00654126562442,0.000298886776533,0.706063146519,0.708118602805,0.0,0.0,0.0,0.0,0.0,0.0,0.0,0.0,0.0,0.001054,0.000687,0.0001,0.0,0.0,0.0,0.0,0.0,0.0,0.0,0.0,0.0,-0.075,-0.075,-9.59,0.0,0.0,0.0,0.0,0.0,0.0,0.0,0.0,0.0
1581281152548841283,367,1581281152548000097,imu,0.00654128382546,0.000311228103384,0.706063141026,0.708118602797,0.0,0.0,0.0,0.0,0.0,0.0,0.0,0.0,0.0,-0.000808,-0.000167,0.0002,0.0,0.0,0.0,0.0,0.0,0.0,0.0,0.0,0.0,-0.074,-0.109,-9.607,0.0,0.0,0.0,0.0,0.0,0.0,0.0,0.0,0.0
1581281152574414949,368,1581281152573697805,imu,0.00654746055577,0.000317446804025,0.706069317756,0.708112384096,0.0,0.0,0.0,0.0,0.0,0.0,0.0,0.0,0.0,0.000281,0.000421,0.0016,0.0,0.0,0.0,0.0,0.0,0.0,0.0,0.0,0.0,-0.086,-0.089,-9.618,0.0,0.0,0.0,0.0,0.0,0.0,0.0,0.0,0.0
1581281152598830985,369,1581281152597906351,imu,0.0065413020265,0.000323569430137,0.706063135318,0.708118602789,0.0,0.0,0.0,0.0,0.0,0.0,0.0,0.0,0.0,7.3e-05,0.000288,0.0011,0.0,0.0,0.0,0.0,0.0,0.0,0.0,0.0,0.0,-0.094,-0.119,-9.566,0.0,0.0,0.0,0.0,0.0,0.0,0.0,0.0,0.0
1581281152624604414,370,1581281152623630046,imu,0.00654748152681,0.000329730993344,0.706063132468,0.708118545678,0.0,0.0,0.0,0.0,0.0,0.0,0.0,0.0,0.0,0.000383,0.00073,-0.0008,0.0,0.0,0.0,0.0,0.0,0.0,0.0,0.0,0.0,-0.077,-0.089,-9.612,0.0,0.0,0.0,0.0,0.0,0.0,0.0,0.0,0.0
1581281152649607615,371,1581281152648549556,imu,0.00654748152681,0.000329730993344,0.706063132468,0.708118545678,0.0,0.0,0.0,0.0,0.0,0.0,0.0,0.0,0.0,-0.000429,-6.9e-05,0.0003,0.0,0.0,0.0,0.0,0.0,0.0,0.0,0.0,0.0,-0.072,-0.09,-9.593,0.0,0.0,0.0,0.0,0.0,0.0,0.0,0.0,0.0
1581281152674047230,372,1581281152673526048,imu,0.00654130484993,0.000323512346496,0.706056955791,0.708124764325,0.0,0.0,0.0,0.0,0.0,0.0,0.0,0.0,0.0,-0.000899,0.000527,-0.0008,0.0,0.0,0.0,0.0,0.0,0.0,0.0,0.0,0.0,-0.085,-0.094,-9.598,0.0,0.0,0.0,0.0,0.0,0.0,0.0,0.0,0.0
1581281152699834653,373,1581281152697837591,imu,0.0065413020265,0.000323569430137,0.706063135318,0.708118602789,0.0,0.0,0.0,0.0,0.0,0.0,0.0,0.0,0.0,-0.000465,0.000861,-0.0,0.0,0.0,0.0,0.0,0.0,0.0,0.0,0.0,0.0,-0.093,-0.115,-9.649,0.0,0.0,0.0,0.0,0.0,0.0,0.0,0.0,0.0
1581281152724367349,374,1581281152723562002,imu,0.00655364282558,0.000323551229874,0.706063135487,0.708118488522,0.0,0.0,0.0,0.0,0.0,0.0,0.0,0.0,0.0,0.000237,-9.7e-05,0.0013,0.0,0.0,0.0,0.0,0.0,0.0,0.0,0.0,0.0,-0.056,-0.082,-9.624,0.0,0.0,0.0,0.0,0.0,0.0,0.0,0.0,0.0
1581281152749158389,375,1581281152748417854,imu,0.00653514072674,0.000329749193609,0.706063132299,0.708118659837,0.0,0.0,0.0,0.0,0.0,0.0,0.0,0.0,0.0,-0.00015,-0.000338,0.0011,0.0,0.0,0.0,0.0,0.0,0.0,0.0,0.0,0.0,-0.105,-0.102,-9.583,0.0,0.0,0.0,0.0,0.0,0.0,0.0,0.0,0.0
1581281152775713706,376,1581281152773531913,imu,0.00652897942648,0.000335928957055,0.706063129226,0.708118716831,0.0,0.0,0.0,0.0,0.0,0.0,0.0,0.0,0.0,0.000443,-0.000344,0.0009,0.0,0.0,0.0,0.0,0.0,0.0,0.0,0.0,0.0,-0.077,-0.094,-9.594,0.0,0.0,0.0,0.0,0.0,0.0,0.0,0.0,0.0
1581281152799190082,377,1581281152798437595,imu,0.00651045912063,0.000329785594147,0.706063131963,0.708118887508,0.0,0.0,0.0,0.0,0.0,0.0,0.0,0.0,0.0,-0.00033,-0.000491,0.0019,0.0,0.0,0.0,0.0,0.0,0.0,0.0,0.0,0.0,-0.11,-0.093,-9.621,0.0,0.0,0.0,0.0,0.0,0.0,0.0,0.0,0.0
1581281152824297713,378,1581281152823538541,imu,0.00651663275905,0.000336060894073,0.706075487956,0.708106507432,0.0,0.0,0.0,0.0,0.0,0.0,0.0,0.0,0.0,0.000597,0.00171,0.0007,0.0,0.0,0.0,0.0,0.0,0.0,0.0,0.0,0.0,-0.061,-0.073,-9.622,0.0,0.0,0.0,0.0,0.0,0.0,0.0,0.0,0.0
1581281152849138966,379,1581281152848409891,imu,0.00651045048463,0.000329956037455,0.706081670231,0.708100402576,0.0,0.0,0.0,0.0,0.0,0.0,0.0,0.0,0.0,-0.000485,0.000453,0.001,0.0,0.0,0.0,0.0,0.0,0.0,0.0,0.0,0.0,-0.07,-0.099,-9.589,0.0,0.0,0.0,0.0,0.0,0.0,0.0,0.0,0.0
1581281152874277400,380,1581281152873410224,imu,0.00651044760497,0.000330012851841,0.706087849545,0.708094240824,0.0,0.0,0.0,0.0,0.0,0.0,0.0,0.0,0.0,-4.9e-05,0.000825,0.0002,0.0,0.0,0.0,0.0,0.0,0.0,0.0,0.0,0.0,-0.095,-0.082,-9.582,0.0,0.0,0.0,0.0,0.0,0.0,0.0,0.0,0.0
1581281152899452380,381,1581281152898333072,imu,0.00649810679831,0.000330030621339,0.706087849382,0.708094354336,0.0,0.0,0.0,0.0,0.0,0.0,0.0,0.0,0.0,-0.001095,-2.6e-05,-0.0013,0.0,0.0,0.0,0.0,0.0,0.0,0.0,0.0,0.0,-0.095,-0.099,-9.553,0.0,0.0,0.0,0.0,0.0,0.0,0.0,0.0,0.0
1581281152924188175,382,1581281152923450946,imu,0.0064981010372,0.000330144034648,0.706100207852,0.708082030671,0.0,0.0,0.0,0.0,0.0,0.0,0.0,0.0,0.0,0.000224,0.000419,0.0002,0.0,0.0,0.0,0.0,0.0,0.0,0.0,0.0,0.0,-0.074,-0.092,-9.589,0.0,0.0,0.0,0.0,0.0,0.0,0.0,0.0,0.0
1581281152949059019,383,1581281152948336124,imu,0.0064857426734,0.000317820261122,0.706100213507,0.708082143976,0.0,0.0,0.0,0.0,0.0,0.0,0.0,0.0,0.0,-0.001221,-0.000286,0.0006,0.0,0.0,0.0,0.0,0.0,0.0,0.0,0.0,0.0,-0.078,-0.088,-9.607,0.0,0.0,0.0,0.0,0.0,0.0,0.0,0.0,0.0
1581281152974648715,384,1581281152973446607,imu,0.00648573712541,0.000317933458638,0.706112571764,0.708069820095,0.0,0.0,0.0,0.0,0.0,0.0,0.0,0.0,0.0,-0.000986,-0.00045,0.0012,0.0,0.0,0.0,0.0,0.0,0.0,0.0,0.0,0.0,-0.081,-0.09,-9.577,0.0,0.0,0.0,0.0,0.0,0.0,0.0,0.0,0.0
1581281152999432308,385,1581281152998390197,imu,0.00649805792831,0.000305631498134,0.706118756571,0.708063544784,0.0,0.0,0.0,0.0,0.0,0.0,0.0,0.0,0.0,-0.000614,-0.001048,0.0006,0.0,0.0,0.0,0.0,0.0,0.0,0.0,0.0,0.0,-0.068,-0.088,-9.615,0.0,0.0,0.0,0.0,0.0,0.0,0.0,0.0,0.0
1581281153024065711,386,1581281153023328542,imu,0.00649807516007,0.000317972826328,0.70611875097,0.708063544776,0.0,0.0,0.0,0.0,0.0,0.0,0.0,0.0,0.0,0.000745,-3e-05,-0.0007,0.0,0.0,0.0,0.0,0.0,0.0,0.0,0.0,0.0,-0.088,-0.09,-9.605,0.0,0.0,0.0,0.0,0.0,0.0,0.0,0.0,0.0
1581281153049856241,387,1581281153048255443,imu,0.00649189886055,0.000311754125265,0.706112574671,0.708069763477,0.0,0.0,0.0,0.0,0.0,0.0,0.0,0.0,0.0,-0.000261,-0.001079,0.0005,0.0,0.0,0.0,0.0,0.0,0.0,0.0,0.0,0.0,-0.087,-0.102,-9.618,0.0,0.0,0.0,0.0,0.0,0.0,0.0,0.0,0.0
1581281153074096864,388,1581281153073304414,imu,0.00650423694815,0.000311793546728,0.706118753877,0.708063488051,0.0,0.0,0.0,0.0,0.0,0.0,0.0,0.0,0.0,0.000574,0.000675,0.0008,0.0,0.0,0.0,0.0,0.0,0.0,0.0,0.0,0.0,-0.074,-0.096,-9.62,0.0,0.0,0.0,0.0,0.0,0.0,0.0,0.0,0.0
1581281153100244066,389,1581281153098209619,imu,0.00648573157543,0.000318046656057,0.706124929806,0.708057495998,0.0,0.0,0.0,0.0,0.0,0.0,0.0,0.0,0.0,-0.001289,-0.000163,0.0021,0.0,0.0,0.0,0.0,0.0,0.0,0.0,0.0,0.0,-0.063,-0.103,-9.618,0.0,0.0,0.0,0.0,0.0,0.0,0.0,0.0,0.0
1581281153124027060,390,1581281153123195171,imu,0.00651037894444,0.0002933297526,0.706124941106,0.708057269203,0.0,0.0,0.0,0.0,0.0,0.0,0.0,0.0,0.0,-0.001347,-0.001741,0.0011,0.0,0.0,0.0,0.0,0.0,0.0,0.0,0.0,0.0,-0.097,-0.102,-9.624,0.0,0.0,0.0,0.0,0.0,0.0,0.0,0.0,0.0
1581281153149097859,391,1581281153148263931,imu,0.00649800388875,0.000268664218783,0.706124951072,0.70805738273,0.0,0.0,0.0,0.0,0.0,0.0,0.0,0.0,0.0,-0.000462,0.000444,0.0,0.0,0.0,0.0,0.0,0.0,0.0,0.0,0.0,0.0,-0.07,-0.089,-9.609,0.0,0.0,0.0,0.0,0.0,0.0,0.0,0.0,0.0
1581281153174160313,392,1581281153173245906,imu,0.0064979867647,0.000256322890078,0.706124955811,0.708057382736,0.0,0.0,0.0,0.0,0.0,0.0,0.0,0.0,0.0,-0.001801,2.2e-05,-0.0013,0.0,0.0,0.0,0.0,0.0,0.0,0.0,0.0,0.0,-0.065,-0.081,-9.608,0.0,0.0,0.0,0.0,0.0,0.0,0.0,0.0,0.0
1581281153198918318,393,1581281153198079586,imu,0.0065041634399,0.000262541752317,0.706131132486,0.708051163874,0.0,0.0,0.0,0.0,0.0,0.0,0.0,0.0,0.0,-0.00142,0.001374,0.0005,0.0,0.0,0.0,0.0,0.0,0.0,0.0,0.0,0.0,-0.08,-0.1,-9.59,0.0,0.0,0.0,0.0,0.0,0.0,0.0,0.0,0.0
1581281153224051128,394,1581281153223225116,imu,0.00651032533533,0.000256362580059,0.706131134907,0.708051107094,0.0,0.0,0.0,0.0,0.0,0.0,0.0,0.0,0.0,-0.000421,0.000233,-0.0008,0.0,0.0,0.0,0.0,0.0,0.0,0.0,0.0,0.0,-0.087,-0.099,-9.62,0.0,0.0,0.0,0.0,0.0,0.0,0.0,0.0,0.0
1581281153248918336,395,1581281153248131513,imu,0.00651032533533,0.000256362580059,0.706131134907,0.708051107094,0.0,0.0,0.0,0.0,0.0,0.0,0.0,0.0,0.0,-0.000464,1.2e-05,0.0004,0.0,0.0,0.0,0.0,0.0,0.0,0.0,0.0,0.0,-0.076,-0.106,-9.63,0.0,0.0,0.0,0.0,0.0,0.0,0.0,0.0,0.0
1581281153274012062,396,1581281153273129224,imu,0.00651650424663,0.000262524736677,0.706131132643,0.708051050254,0.0,0.0,0.0,0.0,0.0,0.0,0.0,0.0,0.0,0.000653,-0.000344,0.0003,0.0,0.0,0.0,0.0,0.0,0.0,0.0,0.0,0.0,-0.091,-0.081,-9.586,0.0,0.0,0.0,0.0,0.0,0.0,0.0,0.0,0.0
1581281153298818239,397,1581281153298067569,imu,0.0065041634399,0.000262541752317,0.706131132486,0.708051163874,0.0,0.0,0.0,0.0,0.0,0.0,0.0,0.0,0.0,-0.000518,0.000132,-0.0002,0.0,0.0,0.0,0.0,0.0,0.0,0.0,0.0,0.0,-0.1,-0.102,-9.606,0.0,0.0,0.0,0.0,0.0,0.0,0.0,0.0,0.0
1581281153323947490,398,1581281153323131084,imu,0.00649183964755,0.000274900096771,0.706131127483,0.708051277272,0.0,0.0,0.0,0.0,0.0,0.0,0.0,0.0,0.0,-0.001255,0.000508,-0.0005,0.0,0.0,0.0,0.0,0.0,0.0,0.0,0.0,0.0,-0.1,-0.083,-9.583,0.0,0.0,0.0,0.0,0.0,0.0,0.0,0.0,0.0
1581281153348847186,399,1581281153348030090,imu,0.0064918249222,0.00026250211611,0.70612495339,0.708057439409,0.0,0.0,0.0,0.0,0.0,0.0,0.0,0.0,0.0,-0.000684,0.000931,-0.0008,0.0,0.0,0.0,0.0,0.0,0.0,0.0,0.0,0.0,-0.074,-0.101,-9.585,0.0,0.0,0.0,0.0,0.0,0.0,0.0,0.0,0.0
1581281153373929459,400,1581281153373013496,imu,0.0065041634399,0.000262541752317,0.706131132486,0.708051163874,0.0,0.0,0.0,0.0,0.0,0.0,0.0,0.0,0.0,-0.000804,6.2e-05,0.0007,0.0,0.0,0.0,0.0,0.0,0.0,0.0,0.0,0.0,-0.099,-0.108,-9.579,0.0,0.0,0.0,0.0,0.0,0.0,0.0,0.0,0.0
1581281153398829161,401,1581281153397981405,imu,0.00651034235169,0.000268703908913,0.706131130168,0.708051107088,0.0,0.0,0.0,0.0,0.0,0.0,0.0,0.0,0.0,0.000637,-0.001172,0.0012,0.0,0.0,0.0,0.0,0.0,0.0,0.0,0.0,0.0,-0.098,-0.092,-9.604,0.0,0.0,0.0,0.0,0.0,0.0,0.0,0.0,0.0
1581281153423956342,402,1581281153423045396,imu,0.00651034000656,0.000268760722357,0.706137309053,0.708044944904,0.0,0.0,0.0,0.0,0.0,0.0,0.0,0.0,0.0,0.000669,-0.000892,0.0005,0.0,0.0,0.0,0.0,0.0,0.0,0.0,0.0,0.0,-0.091,-0.086,-9.625,0.0,0.0,0.0,0.0,0.0,0.0,0.0,0.0,0.0
1581281153448577554,403,1581281153447823762,imu,0.00650417565765,0.000274996600451,0.706143485356,0.708038839446,0.0,0.0,0.0,0.0,0.0,0.0,0.0,0.0,0.0,0.000262,-0.000283,0.0011,0.0,0.0,0.0,0.0,0.0,0.0,0.0,0.0,0.0,-0.076,-0.091,-9.611,0.0,0.0,0.0,0.0,0.0,0.0,0.0,0.0,0.0
1581281153473938305,404,1581281153473030090,imu,0.00650419245862,0.000287337929471,0.706143480295,0.70803883944,0.0,0.0,0.0,0.0,0.0,0.0,0.0,0.0,0.0,-4e-05,-0.000541,0.0007,0.0,0.0,0.0,0.0,0.0,0.0,0.0,0.0,0.0,-0.089,-0.1,-9.604,0.0,0.0,0.0,0.0,0.0,0.0,0.0,0.0,0.0
1581281153498572974,405,1581281153497853040,imu,0.00652269772111,0.00028108514333,0.706137304255,0.708044831169,0.0,0.0,0.0,0.0,0.0,0.0,0.0,0.0,0.0,-1e-06,-0.002128,-0.0005,0.0,0.0,0.0,0.0,0.0,0.0,0.0,0.0,0.0,-0.087,-0.111,-9.58,0.0,0.0,0.0,0.0,0.0,0.0,0.0,0.0,0.0
1581281153524414815,406,1581281153523579835,imu,0.00654119807277,0.000274946199702,0.706143485821,0.70803849794,0.0,0.0,0.0,0.0,0.0,0.0,0.0,0.0,0.0,0.000969,-0.000222,0.0003,0.0,0.0,0.0,0.0,0.0,0.0,0.0,0.0,0.0,-0.096,-0.096,-9.604,0.0,0.0,0.0,0.0,0.0,0.0,0.0,0.0,0.0
1581281153548718891,407,1581281153547890186,imu,0.00654736241826,0.000268709998532,0.706137309521,0.708044603074,0.0,0.0,0.0,0.0,0.0,0.0,0.0,0.0,0.0,0.000656,-0.000266,0.0003,0.0,0.0,0.0,0.0,0.0,0.0,0.0,0.0,0.0,-0.083,-0.093,-9.592,0.0,0.0,0.0,0.0,0.0,0.0,0.0,0.0,0.0
1581281153574698963,408,1581281153573670387,imu,0.00654118356322,0.00026254778801,0.706137311839,0.708044660184,0.0,0.0,0.0,0.0,0.0,0.0,0.0,0.0,0.0,-0.001312,7.3e-05,-0.0,0.0,0.0,0.0,0.0,0.0,0.0,0.0,0.0,0.0,-0.073,-0.097,-9.595,0.0,0.0,0.0,0.0,0.0,0.0,0.0,0.0,0.0
1581281153598538177,409,1581281153597815990,imu,0.00654118356322,0.00026254778801,0.706137311839,0.708044660184,0.0,0.0,0.0,0.0,0.0,0.0,0.0,0.0,0.0,-0.001564,0.001126,-0.0,0.0,0.0,0.0,0.0,0.0,0.0,0.0,0.0,0.0,-0.084,-0.095,-9.578,0.0,0.0,0.0,0.0,0.0,0.0,0.0,0.0,0.0
1581281153625512776,410,1581281153623592615,imu,0.00652882585165,0.000250223366908,0.706137316314,0.708044774241,0.0,0.0,0.0,0.0,0.0,0.0,0.0,0.0,0.0,-2.4e-05,0.000334,0.0,0.0,0.0,0.0,0.0,0.0,0.0,0.0,0.0,0.0,-0.072,-0.109,-9.6,0.0,0.0,0.0,0.0,0.0,0.0,0.0,0.0,0.0
1581281153649286557,411,1581281153648588895,imu,0.00652268081245,0.000268743814413,0.706137309209,0.708044831176,0.0,0.0,0.0,0.0,0.0,0.0,0.0,0.0,0.0,-0.00046,0.001605,0.0013,0.0,0.0,0.0,0.0,0.0,0.0,0.0,0.0,0.0,-0.079,-0.093,-9.578,0.0,0.0,0.0,0.0,0.0,0.0,0.0,0.0,0.0
1581281153674557664,412,1581281153673472881,imu,0.00652269281425,0.000281198985839,0.706149661861,0.708032506641,0.0,0.0,0.0,0.0,0.0,0.0,0.0,0.0,0.0,3.9e-05,-0.000199,0.0006,0.0,0.0,0.0,0.0,0.0,0.0,0.0,0.0,0.0,-0.065,-0.102,-9.608,0.0,0.0,0.0,0.0,0.0,0.0,0.0,0.0,0.0
1581281153699354609,413,1581281153698438167,imu,0.00652885486997,0.000275019974967,0.706149664442,0.708032449699,0.0,0.0,0.0,0.0,0.0,0.0,0.0,0.0,0.0,3.2e-05,-0.000772,0.0011,0.0,0.0,0.0,0.0,0.0,0.0,0.0,0.0,0.0,-0.069,-0.082,-9.596,0.0,0.0,0.0,0.0,0.0,0.0,0.0,0.0,0.0
1581281153724334907,414,1581281153723534822,imu,0.00651651166438,0.000275093534825,0.70615584301,0.70802640119,0.0,0.0,0.0,0.0,0.0,0.0,0.0,0.0,0.0,-0.002025,0.000689,0.0006,0.0,0.0,0.0,0.0,0.0,0.0,0.0,0.0,0.0,-0.074,-0.096,-9.618,0.0,0.0,0.0,0.0,0.0,0.0,0.0,0.0,0.0
1581281153749369007,415,1581281153748420000,imu,0.00652267377451,0.000268914577705,0.706155845537,0.708026344302,0.0,0.0,0.0,0.0,0.0,0.0,0.0,0.0,0.0,-1e-06,0.000266,0.0,0.0,0.0,0.0,0.0,0.0,0.0,0.0,0.0,0.0,-0.083,-0.09,-9.614,0.0,0.0,0.0,0.0,0.0,0.0,0.0,0.0,0.0
1581281153774386900,416,1581281153773480415,imu,0.00652883588415,0.000262735620565,0.70615584801,0.70802628736,0.0,0.0,0.0,0.0,0.0,0.0,0.0,0.0,0.0,-0.000571,-0.000458,0.0001,0.0,0.0,0.0,0.0,0.0,0.0,0.0,0.0,0.0,-0.119,-0.104,-9.616,0.0,0.0,0.0,0.0,0.0,0.0,0.0,0.0,0.0
1581281153799427440,417,1581281153798436641,imu,0.00652265942772,0.000256516327333,0.706149671553,0.708032506654,0.0,0.0,0.0,0.0,0.0,0.0,0.0,0.0,0.0,-0.000782,0.000324,0.0001,0.0,0.0,0.0,0.0,0.0,0.0,0.0,0.0,0.0,-0.091,-0.118,-9.592,0.0,0.0,0.0,0.0,0.0,0.0,0.0,0.0,0.0
1581281153824300412,418,1581281153823483467,imu,0.00651649507882,0.000262752205426,0.706155847857,0.708026401196,0.0,0.0,0.0,0.0,0.0,0.0,0.0,0.0,0.0,0.000578,0.001117,0.001,0.0,0.0,0.0,0.0,0.0,0.0,0.0,0.0,0.0,-0.085,-0.093,-9.592,0.0,0.0,0.0,0.0,0.0,0.0,0.0,0.0,0.0
1581281153849138878,419,1581281153848345756,imu,0.00651651406478,0.000275036667522,0.706149664288,0.708032563535,0.0,0.0,0.0,0.0,0.0,0.0,0.0,0.0,0.0,0.00035,0.000115,-0.0001,0.0,0.0,0.0,0.0,0.0,0.0,0.0,0.0,0.0,-0.115,-0.116,-9.589,0.0,0.0,0.0,0.0,0.0,0.0,0.0,0.0,0.0
1581281153874300412,420,1581281153873410701,imu,0.00651031638262,0.000256589833128,0.706155850123,0.708026458036,0.0,0.0,0.0,0.0,0.0,0.0,0.0,0.0,0.0,-0.000593,0.000844,-0.0007,0.0,0.0,0.0,0.0,0.0,0.0,0.0,0.0,0.0,-0.074,-0.091,-9.599,0.0,0.0,0.0,0.0,0.0,0.0,0.0,0.0,0.0
1581281153899069172,421,1581281153898348808,imu,0.00651031414321,0.000256646646346,0.706162028793,0.708020295637,0.0,0.0,0.0,0.0,0.0,0.0,0.0,0.0,0.0,0.00197,4.3e-05,-0.001,0.0,0.0,0.0,0.0,0.0,0.0,0.0,0.0,0.0,-0.079,-0.097,-9.595,0.0,0.0,0.0,0.0,0.0,0.0,0.0,0.0,0.0
1581281153924224237,422,1581281153923452138,imu,0.00651031414321,0.000256646646346,0.706162028793,0.708020295637,0.0,0.0,0.0,0.0,0.0,0.0,0.0,0.0,0.0,3e-06,0.000152,-0.0,0.0,0.0,0.0,0.0,0.0,0.0,0.0,0.0,0.0,-0.102,-0.098,-9.59,0.0,0.0,0.0,0.0,0.0,0.0,0.0,0.0,0.0
1581281153949173065,423,1581281153948353052,imu,0.00651031190329,0.000256703459545,0.706168207408,0.708014133184,0.0,0.0,0.0,0.0,0.0,0.0,0.0,0.0,0.0,-0.001613,0.001048,0.0002,0.0,0.0,0.0,0.0,0.0,0.0,0.0,0.0,0.0,-0.084,-0.104,-9.596,0.0,0.0,0.0,0.0,0.0,0.0,0.0,0.0,0.0
1581281153974042146,424,1581281153973324298,imu,0.00650414968433,0.000262882309158,0.706168204991,0.708014189964,0.0,0.0,0.0,0.0,0.0,0.0,0.0,0.0,0.0,-0.000843,0.001173,-0.0016,0.0,0.0,0.0,0.0,0.0,0.0,0.0,0.0,0.0,-0.073,-0.115,-9.604,0.0,0.0,0.0,0.0,0.0,0.0,0.0,0.0,0.0
1581281153999248214,425,1581281153998329639,imu,0.00649182524491,0.000275240008323,0.706168199994,0.708014303362,0.0,0.0,0.0,0.0,0.0,0.0,0.0,0.0,0.0,-0.000376,0.000514,-0.0,0.0,0.0,0.0,0.0,0.0,0.0,0.0,0.0,0.0,-0.08,-0.085,-9.573,0.0,0.0,0.0,0.0,0.0,0.0,0.0,0.0,0.0
1581281154024131746,426,1581281154023325920,imu,0.00647950080352,0.000287597707405,0.706168194782,0.708014416545,0.0,0.0,0.0,0.0,0.0,0.0,0.0,0.0,0.0,-0.000696,0.002194,0.0006,0.0,0.0,0.0,0.0,0.0,0.0,0.0,0.0,0.0,-0.107,-0.104,-9.604,0.0,0.0,0.0,0.0,0.0,0.0,0.0,0.0,0.0
1581281154049059924,427,1581281154048245191,imu,0.00647332466765,0.000281378736954,0.706162018646,0.708020635515,0.0,0.0,0.0,0.0,0.0,0.0,0.0,0.0,0.0,0.000187,-0.000212,-0.001,0.0,0.0,0.0,0.0,0.0,0.0,0.0,0.0,0.0,-0.06,-0.108,-9.59,0.0,0.0,0.0,0.0,0.0,0.0,0.0,0.0,0.0
1581281154073992903,428,1581281154073304414,imu,0.00646098385327,0.000281395214134,0.706162018495,0.708020748382,0.0,0.0,0.0,0.0,0.0,0.0,0.0,0.0,0.0,-0.000368,0.000301,-0.0013,0.0,0.0,0.0,0.0,0.0,0.0,0.0,0.0,0.0,-0.078,-0.105,-9.625,0.0,0.0,0.0,0.0,0.0,0.0,0.0,0.0,0.0
1581281154099949046,429,1581281154098213434,imu,0.00646100033114,0.000293736543546,0.706162013326,0.708020748375,0.0,0.0,0.0,0.0,0.0,0.0,0.0,0.0,0.0,0.000303,0.000708,0.0005,0.0,0.0,0.0,0.0,0.0,0.0,0.0,0.0,0.0,-0.091,-0.096,-9.601,0.0,0.0,0.0,0.0,0.0,0.0,0.0,0.0,0.0
1581281154124148094,430,1581281154123206138,imu,0.00647334114552,0.000293720066366,0.706162013476,0.708020635509,0.0,0.0,0.0,0.0,0.0,0.0,0.0,0.0,0.0,-0.000355,0.000812,-0.0008,0.0,0.0,0.0,0.0,0.0,0.0,0.0,0.0,0.0,-0.105,-0.077,-9.59,0.0,0.0,0.0,0.0,0.0,0.0,0.0,0.0,0.0
1581281154149086117,431,1581281154148235797,imu,0.00647332221191,0.000281435227358,0.706168197265,0.708014473062,0.0,0.0,0.0,0.0,0.0,0.0,0.0,0.0,0.0,-0.000991,0.001654,-0.0001,0.0,0.0,0.0,0.0,0.0,0.0,0.0,0.0,0.0,-0.055,-0.092,-9.608,0.0,0.0,0.0,0.0,0.0,0.0,0.0,0.0,0.0
1581281154174037434,432,1581281154173232793,imu,0.00646100033114,0.000293736543546,0.706162013326,0.708020748375,0.0,0.0,0.0,0.0,0.0,0.0,0.0,0.0,0.0,-0.001163,-3.6e-05,-0.001,0.0,0.0,0.0,0.0,0.0,0.0,0.0,0.0,0.0,-0.085,-0.1,-9.586,0.0,0.0,0.0,0.0,0.0,0.0,0.0,0.0,0.0
1581281154199068614,433,1581281154198161125,imu,0.00647332221191,0.000281435227358,0.706168197265,0.708014473062,0.0,0.0,0.0,0.0,0.0,0.0,0.0,0.0,0.0,-0.000102,-0.00013,0.0006,0.0,0.0,0.0,0.0,0.0,0.0,0.0,0.0,0.0,-0.072,-0.086,-9.598,0.0,0.0,0.0,0.0,0.0,0.0,0.0,0.0,0.0
1581281154223844860,434,1581281154223174333,imu,0.00647950080352,0.000287597707405,0.706168194782,0.708014416545,0.0,0.0,0.0,0.0,0.0,0.0,0.0,0.0,0.0,0.000576,-0.000294,0.0002,0.0,0.0,0.0,0.0,0.0,0.0,0.0,0.0,0.0,-0.075,-0.098,-9.612,0.0,0.0,0.0,0.0,0.0,0.0,0.0,0.0,0.0
1581281154248977665,435,1581281154248155355,imu,0.00647335495225,0.000306117886376,0.70616818671,0.708014473048,0.0,0.0,0.0,0.0,0.0,0.0,0.0,0.0,0.0,0.000691,-0.000184,0.0001,0.0,0.0,0.0,0.0,0.0,0.0,0.0,0.0,0.0,-0.068,-0.107,-9.588,0.0,0.0,0.0,0.0,0.0,0.0,0.0,0.0,0.0
1581281154273823635,436,1581281154273058891,imu,0.0064795197909,0.000299882492448,0.706162010886,0.708020578991,0.0,0.0,0.0,0.0,0.0,0.0,0.0,0.0,0.0,-0.000943,0.000436,0.0011,0.0,0.0,0.0,0.0,0.0,0.0,0.0,0.0,0.0,-0.07,-0.098,-9.6,0.0,0.0,0.0,0.0,0.0,0.0,0.0,0.0,0.0
1581281154299003002,437,1581281154298033237,imu,0.00647335495225,0.000306117886376,0.70616818671,0.708014473048,0.0,0.0,0.0,0.0,0.0,0.0,0.0,0.0,0.0,-0.001048,0.001023,0.0024,0.0,0.0,0.0,0.0,0.0,0.0,0.0,0.0,0.0,-0.079,-0.104,-9.626,0.0,0.0,0.0,0.0,0.0,0.0,0.0,0.0,0.0
1581281154324003029,438,1581281154323117017,imu,0.00647333858208,0.000293776556913,0.706168192095,0.708014473056,0.0,0.0,0.0,0.0,0.0,0.0,0.0,0.0,0.0,-0.000121,-0.000169,-0.0003,0.0,0.0,0.0,0.0,0.0,0.0,0.0,0.0,0.0,-0.088,-0.109,-9.61,0.0,0.0,0.0,0.0,0.0,0.0,0.0,0.0,0.0
1581281154349100541,439,1581281154348063468,imu,0.00647333858208,0.000293776556913,0.706168192095,0.708014473056,0.0,0.0,0.0,0.0,0.0,0.0,0.0,0.0,0.0,-0.000396,0.000239,-0.0008,0.0,0.0,0.0,0.0,0.0,0.0,0.0,0.0,0.0,-0.092,-0.083,-9.596,0.0,0.0,0.0,0.0,0.0,0.0,0.0,0.0,0.0
1581281154373839545,440,1581281154373070240,imu,0.00646715496918,0.000287726950081,0.706180551709,0.708002204451,0.0,0.0,0.0,0.0,0.0,0.0,0.0,0.0,0.0,0.000447,0.001288,0.0002,0.0,0.0,0.0,0.0,0.0,0.0,0.0,0.0,0.0,-0.079,-0.093,-9.594,0.0,0.0,0.0,0.0,0.0,0.0,0.0,0.0,0.0
1581281154398785445,441,1581281154398001909,imu,0.00646100879369,0.000306247021785,0.706180543639,0.708002260847,0.0,0.0,0.0,0.0,0.0,0.0,0.0,0.0,0.0,0.000438,0.000601,0.0016,0.0,0.0,0.0,0.0,0.0,0.0,0.0,0.0,0.0,-0.094,-0.109,-9.603,0.0,0.0,0.0,0.0,0.0,0.0,0.0,0.0,0.0
1581281154423733234,442,1581281154422955274,imu,0.00646716850512,0.000300124716577,0.70618672489,0.70799604183,0.0,0.0,0.0,0.0,0.0,0.0,0.0,0.0,0.0,-0.000358,-4.6e-05,0.0004,0.0,0.0,0.0,0.0,0.0,0.0,0.0,0.0,0.0,-0.111,-0.09,-9.599,0.0,0.0,0.0,0.0,0.0,0.0,0.0,0.0,0.0
1581281154448788002,443,1581281154447969198,imu,0.006479495783,0.000287710795984,0.706180551857,0.708002091477,0.0,0.0,0.0,0.0,0.0,0.0,0.0,0.0,0.0,0.000835,-0.001631,-0.0023,0.0,0.0,0.0,0.0,0.0,0.0,0.0,0.0,0.0,-0.072,-0.083,-9.601,0.0,0.0,0.0,0.0,0.0,0.0,0.0,0.0,0.0
1581281154473754068,444,1581281154472984790,imu,0.00649182044008,0.000275353312006,0.706180557067,0.708001978294,0.0,0.0,0.0,0.0,0.0,0.0,0.0,0.0,0.0,-0.000912,0.00018,-0.0002,0.0,0.0,0.0,0.0,0.0,0.0,0.0,0.0,0.0,-0.075,-0.097,-9.624,0.0,0.0,0.0,0.0,0.0,0.0,0.0,0.0,0.0
1581281154499149373,445,1581281154498052120,imu,0.00649182044008,0.000275353312006,0.706180557067,0.708001978294,0.0,0.0,0.0,0.0,0.0,0.0,0.0,0.0,0.0,-0.00039,0.00089,-0.0011,0.0,0.0,0.0,0.0,0.0,0.0,0.0,0.0,0.0,-0.08,-0.111,-9.61,0.0,0.0,0.0,0.0,0.0,0.0,0.0,0.0,0.0
