%time,field.header.seq,field.header.stamp,field.header.frame_id,field.orientation.x,field.orientation.y,field.orientation.z,field.orientation.w,field.orientation_covariance0,field.orientation_covariance1,field.orientation_covariance2,field.orientation_covariance3,field.orientation_covariance4,field.orientation_covariance5,field.orientation_covariance6,field.orientation_covariance7,field.orientation_covariance8,field.angular_velocity.x,field.angular_velocity.y,field.angular_velocity.z,field.angular_velocity_covariance0,field.angular_velocity_covariance1,field.angular_velocity_covariance2,field.angular_velocity_covariance3,field.angular_velocity_covariance4,field.angular_velocity_covariance5,field.angular_velocity_covariance6,field.angular_velocity_covariance7,field.angular_velocity_covariance8,field.linear_acceleration.x,field.linear_acceleration.y,field.linear_acceleration.z,field.linear_acceleration_covariance0,field.linear_acceleration_covariance1,field.linear_acceleration_covariance2,field.linear_acceleration_covariance3,field.linear_acceleration_covariance4,field.linear_acceleration_covariance5,field.linear_acceleration_covariance6,field.linear_acceleration_covariance7,field.linear_acceleration_covariance8
1581012839875403341,24366,1581012839873430013,,0.00571563020804,0.0126939203288,-0.0737718787016,0.997177971012,0.0,0.0,0.0,0.0,0.0,0.0,0.0,0.0,0.0,0.000546,-0.001175,-0.052518,0.0,0.0,0.0,0.0,0.0,0.0,0.0,0.0,0.0,0.245,-0.075,-9.654,0.0,0.0,0.0,0.0,0.0,0.0,0.0,0.0,0.0
1581012839899244062,24367,1581012839897701978,,0.00573263873065,0.0126895272621,-0.0744246250499,0.997129423865,0.0,0.0,0.0,0.0,0.0,0.0,0.0,0.0,0.0,0.002366,-0.000225,-0.051872,0.0,0.0,0.0,0.0,0.0,0.0,0.0,0.0,0.0,0.251,-0.069,-9.699,0.0,0.0,0.0,0.0,0.0,0.0,0.0,0.0,0.0
1581012839924315639,24368,1581012839922888040,,0.00574148608346,0.0126945238957,-0.0750685605425,0.997081037639,0.0,0.0,0.0,0.0,0.0,0.0,0.0,0.0,0.0,0.00019,0.000138,-0.051567,0.0,0.0,0.0,0.0,0.0,0.0,0.0,0.0,0.0,0.278,-0.107,-9.649,0.0,0.0,0.0,0.0,0.0,0.0,0.0,0.0,0.0
1581012839948876322,24369,1581012839947659969,,0.0057418631907,0.0127000748927,-0.0757297552307,0.997030964052,0.0,0.0,0.0,0.0,0.0,0.0,0.0,0.0,0.0,0.001459,-0.000694,-0.052002,0.0,0.0,0.0,0.0,0.0,0.0,0.0,0.0,0.0,0.286,-0.045,-9.709,0.0,0.0,0.0,0.0,0.0,0.0,0.0,0.0,0.0
1581012839974643510,24370,1581012839972935914,,0.00575006334341,0.0126963643114,-0.0763735938989,0.996981852021,0.0,0.0,0.0,0.0,0.0,0.0,0.0,0.0,0.0,0.000644,0.001114,-0.051758,0.0,0.0,0.0,0.0,0.0,0.0,0.0,0.0,0.0,0.271,-0.101,-9.677,0.0,0.0,0.0,0.0,0.0,0.0,0.0,0.0,0.0
1581012839999221206,24371,1581012839997715950,,0.00575837186226,0.0126925981847,-0.0770261005906,0.996931652087,0.0,0.0,0.0,0.0,0.0,0.0,0.0,0.0,0.0,0.002766,0.001253,-0.052036,0.0,0.0,0.0,0.0,0.0,0.0,0.0,0.0,0.0,0.246,-0.094,-9.629,0.0,0.0,0.0,0.0,0.0,0.0,0.0,0.0,0.0
1581012840024912916,24372,1581012840022948026,,0.00577594332735,0.0126968986638,-0.0776700182365,0.996881535344,0.0,0.0,0.0,0.0,0.0,0.0,0.0,0.0,0.0,0.005265,-0.000211,-0.052058,0.0,0.0,0.0,0.0,0.0,0.0,0.0,0.0,0.0,0.277,-0.084,-9.674,0.0,0.0,0.0,0.0,0.0,0.0,0.0,0.0,0.0
1581012840050280565,24373,1581012840047970056,,0.00578425219038,0.0126931155986,-0.0783224589934,0.996830486924,0.0,0.0,0.0,0.0,0.0,0.0,0.0,0.0,0.0,0.001014,-1.6e-05,-0.050835,0.0,0.0,0.0,0.0,0.0,0.0,0.0,0.0,0.0,0.245,-0.093,-9.733,0.0,0.0,0.0,0.0,0.0,0.0,0.0,0.0,0.0
1581012840074827610,24374,1581012840072921991,,0.00578374929607,0.0126900667544,-0.0789660569199,0.996779751151,0.0,0.0,0.0,0.0,0.0,0.0,0.0,0.0,0.0,0.000334,-0.001124,-0.051199,0.0,0.0,0.0,0.0,0.0,0.0,0.0,0.0,0.0,0.247,-0.13,-9.654,0.0,0.0,0.0,0.0,0.0,0.0,0.0,0.0,0.0
1581012840099366293,24375,1581012840097687005,,0.0057926366163,0.01269502731,-0.0796097650294,0.996728431898,0.0,0.0,0.0,0.0,0.0,0.0,0.0,0.0,0.0,0.001421,0.001184,-0.051171,0.0,0.0,0.0,0.0,0.0,0.0,0.0,0.0,0.0,0.224,-0.128,-9.625,0.0,0.0,0.0,0.0,0.0,0.0,0.0,0.0,0.0
1581012840124379754,24376,1581012840122790098,,0.00580153275451,0.0126999816747,-0.0802534397823,0.996676696871,0.0,0.0,0.0,0.0,0.0,0.0,0.0,0.0,0.0,0.001995,-0.000598,-0.052324,0.0,0.0,0.0,0.0,0.0,0.0,0.0,0.0,0.0,0.252,-0.097,-9.673,0.0,0.0,0.0,0.0,0.0,0.0,0.0,0.0,0.0
1581012840149002528,24377,1581012840147654056,,0.00581783586725,0.0126867785511,-0.080905824452,0.996624024397,0.0,0.0,0.0,0.0,0.0,0.0,0.0,0.0,0.0,0.003124,-0.00044,-0.051765,0.0,0.0,0.0,0.0,0.0,0.0,0.0,0.0,0.0,0.252,-0.084,-9.648,0.0,0.0,0.0,0.0,0.0,0.0,0.0,0.0,0.0
1581012840174858281,24378,1581012840172991991,,0.00583543470749,0.0126910040741,-0.0815495421874,0.996571401499,0.0,0.0,0.0,0.0,0.0,0.0,0.0,0.0,0.0,0.003081,0.001007,-0.0521,0.0,0.0,0.0,0.0,0.0,0.0,0.0,0.0,0.0,0.245,-0.092,-9.673,0.0,0.0,0.0,0.0,0.0,0.0,0.0,0.0,0.0
1581012840199486129,24379,1581012840197737932,,0.00585221453655,0.0126865668691,-0.0821844973161,0.996519197511,0.0,0.0,0.0,0.0,0.0,0.0,0.0,0.0,0.0,0.00282,-0.000644,-0.052062,0.0,0.0,0.0,0.0,0.0,0.0,0.0,0.0,0.0,0.26,-0.114,-9.707,0.0,0.0,0.0,0.0,0.0,0.0,0.0,0.0,0.0
1581012840224850965,24380,1581012840223020076,,0.00587790821873,0.0126812881116,-0.0828369212994,0.996465092011,0.0,0.0,0.0,0.0,0.0,0.0,0.0,0.0,0.0,0.002918,1.4e-05,-0.051689,0.0,0.0,0.0,0.0,0.0,0.0,0.0,0.0,0.0,0.303,-0.095,-9.655,0.0,0.0,0.0,0.0,0.0,0.0,0.0,0.0,0.0
1581012840249141764,24381,1581012840247591972,,0.0058942852337,0.0126679628812,-0.0834978620031,0.996409999528,0.0,0.0,0.0,0.0,0.0,0.0,0.0,0.0,0.0,0.0017,-0.001068,-0.052055,0.0,0.0,0.0,0.0,0.0,0.0,0.0,0.0,0.0,0.242,-0.09,-9.671,0.0,0.0,0.0,0.0,0.0,0.0,0.0,0.0,0.0
1581012840274247529,24382,1581012840272638082,,0.00591104895321,0.0126634711891,-0.0841327137146,0.996356553891,0.0,0.0,0.0,0.0,0.0,0.0,0.0,0.0,0.0,0.002187,6.1e-05,-0.051846,0.0,0.0,0.0,0.0,0.0,0.0,0.0,0.0,0.0,0.257,-0.096,-9.692,0.0,0.0,0.0,0.0,0.0,0.0,0.0,0.0,0.0
1581012840299765558,24383,1581012840297831058,,0.00593672464577,0.0126581199285,-0.0847850304266,0.996301172295,0.0,0.0,0.0,0.0,0.0,0.0,0.0,0.0,0.0,0.001514,-0.0009,-0.051112,0.0,0.0,0.0,0.0,0.0,0.0,0.0,0.0,0.0,0.256,-0.113,-9.648,0.0,0.0,0.0,0.0,0.0,0.0,0.0,0.0,0.0
1581012840325752491,24384,1581012840323438882,,0.00595530149559,0.0126708220418,-0.0854459589235,0.996244434241,0.0,0.0,0.0,0.0,0.0,0.0,0.0,0.0,0.0,0.000584,-0.000781,-0.049857,0.0,0.0,0.0,0.0,0.0,0.0,0.0,0.0,0.0,0.231,-0.107,-9.691,0.0,0.0,0.0,0.0,0.0,0.0,0.0,0.0,0.0
1581012840349009567,24385,1581012840347575902,,0.00595414963016,0.0126589794592,-0.086097838243,0.996188466401,0.0,0.0,0.0,0.0,0.0,0.0,0.0,0.0,0.0,0.001942,-0.000887,-0.052366,0.0,0.0,0.0,0.0,0.0,0.0,0.0,0.0,0.0,0.243,-0.093,-9.671,0.0,0.0,0.0,0.0,0.0,0.0,0.0,0.0,0.0
1581012840374562809,24386,1581012840373074054,,0.0059692838328,0.0126370930355,-0.0867237907968,0.996134356219,0.0,0.0,0.0,0.0,0.0,0.0,0.0,0.0,0.0,0.00096,-2.7e-05,-0.051369,0.0,0.0,0.0,0.0,0.0,0.0,0.0,0.0,0.0,0.243,-0.101,-9.675,0.0,0.0,0.0,0.0,0.0,0.0,0.0,0.0,0.0
1581012840399856055,24387,1581012840397809028,,0.00597679212004,0.0126244909296,-0.087375708395,0.99607749988,0.0,0.0,0.0,0.0,0.0,0.0,0.0,0.0,0.0,0.001564,-0.00051,-0.052997,0.0,0.0,0.0,0.0,0.0,0.0,0.0,0.0,0.0,0.286,-0.081,-9.682,0.0,0.0,0.0,0.0,0.0,0.0,0.0,0.0,0.0
1581012840424997809,24388,1581012840423131942,,0.00597647177579,0.0126212924559,-0.0880362026067,0.996019383241,0.0,0.0,0.0,0.0,0.0,0.0,0.0,0.0,0.0,-8.9e-05,0.0001,-0.052248,0.0,0.0,0.0,0.0,0.0,0.0,0.0,0.0,0.0,0.255,-0.124,-9.691,0.0,0.0,0.0,0.0,0.0,0.0,0.0,0.0,0.0
1581012840449421138,24389,1581012840447973012,,0.00597515682096,0.0126095127508,-0.0886792434544,0.995962494007,0.0,0.0,0.0,0.0,0.0,0.0,0.0,0.0,0.0,0.000113,-0.001348,-0.050223,0.0,0.0,0.0,0.0,0.0,0.0,0.0,0.0,0.0,0.231,-0.091,-9.7,0.0,0.0,0.0,0.0,0.0,0.0,0.0,0.0,0.0
1581012840475760795,24390,1581012840473495960,,0.00597471754314,0.0126063788796,-0.0893309703341,0.99590429244,0.0,0.0,0.0,0.0,0.0,0.0,0.0,0.0,0.0,-0.000199,-0.001536,-0.051479,0.0,0.0,0.0,0.0,0.0,0.0,0.0,0.0,0.0,0.259,-0.105,-9.654,0.0,0.0,0.0,0.0,0.0,0.0,0.0,0.0,0.0
1581012840499755034,24391,1581012840498025894,,0.0059900892123,0.0125842995036,-0.0899828154645,0.995845794869,0.0,0.0,0.0,0.0,0.0,0.0,0.0,0.0,0.0,0.000444,-0.001633,-0.05193,0.0,0.0,0.0,0.0,0.0,0.0,0.0,0.0,0.0,0.269,-0.115,-9.69,0.0,0.0,0.0,0.0,0.0,0.0,0.0,0.0,0.0
1581012840525348178,24392,1581012840523125886,,0.00599053416029,0.0125898049408,-0.09064318738,0.99578583184,0.0,0.0,0.0,0.0,0.0,0.0,0.0,0.0,0.0,0.000258,-0.001427,-0.052412,0.0,0.0,0.0,0.0,0.0,0.0,0.0,0.0,0.0,0.25,-0.099,-9.725,0.0,0.0,0.0,0.0,0.0,0.0,0.0,0.0,0.0
1581012840549819471,24393,1581012840548043012,,0.00599707200025,0.0125685548787,-0.0912861558141,0.995727324277,0.0,0.0,0.0,0.0,0.0,0.0,0.0,0.0,0.0,0.00182,-0.00042,-0.052486,0.0,0.0,0.0,0.0,0.0,0.0,0.0,0.0,0.0,0.26,-0.094,-9.673,0.0,0.0,0.0,0.0,0.0,0.0,0.0,0.0,0.0
1581012840576021598,24394,1581012840573046922,,0.00599500554832,0.0125480515426,-0.0919376657987,0.995667651337,0.0,0.0,0.0,0.0,0.0,0.0,0.0,0.0,0.0,-0.00063,-0.001209,-0.052569,0.0,0.0,0.0,0.0,0.0,0.0,0.0,0.0,0.0,0.247,-0.101,-9.683,0.0,0.0,0.0,0.0,0.0,0.0,0.0,0.0,0.0
1581012840599404666,24395,1581012840597892045,,0.00600310747586,0.0125441775208,-0.0925806206986,0.99560807298,0.0,0.0,0.0,0.0,0.0,0.0,0.0,0.0,0.0,0.000758,-0.000344,-0.052244,0.0,0.0,0.0,0.0,0.0,0.0,0.0,0.0,0.0,0.233,-0.072,-9.74,0.0,0.0,0.0,0.0,0.0,0.0,0.0,0.0,0.0
1581012840624820104,24396,1581012840623224020,,0.00601039446297,0.0125316103693,-0.0932235057432,0.995548196662,0.0,0.0,0.0,0.0,0.0,0.0,0.0,0.0,0.0,0.002461,0.00065,-0.053436,0.0,0.0,0.0,0.0,0.0,0.0,0.0,0.0,0.0,0.276,-0.113,-9.69,0.0,0.0,0.0,0.0,0.0,0.0,0.0,0.0,0.0
1581012840649434539,24397,1581012840647901058,,0.00601777697136,0.0125189865255,-0.0938750393232,0.995487085968,0.0,0.0,0.0,0.0,0.0,0.0,0.0,0.0,0.0,0.000767,-0.000797,-0.052331,0.0,0.0,0.0,0.0,0.0,0.0,0.0,0.0,0.0,0.241,-0.096,-9.707,0.0,0.0,0.0,0.0,0.0,0.0,0.0,0.0,0.0
1581012840675762021,24398,1581012840673233985,,0.00603443764951,0.012514325641,-0.0945092996904,0.995427028711,0.0,0.0,0.0,0.0,0.0,0.0,0.0,0.0,0.0,0.003233,0.000137,-0.052649,0.0,0.0,0.0,0.0,0.0,0.0,0.0,0.0,0.0,0.228,-0.123,-9.634,0.0,0.0,0.0,0.0,0.0,0.0,0.0,0.0,0.0
1581012840699644256,24399,1581012840697892904,,0.00604439497175,0.0125276932865,-0.0951695332572,0.995363894327,0.0,0.0,0.0,0.0,0.0,0.0,0.0,0.0,0.0,0.002645,0.001018,-0.051015,0.0,0.0,0.0,0.0,0.0,0.0,0.0,0.0,0.0,0.253,-0.049,-9.623,0.0,0.0,0.0,0.0,0.0,0.0,0.0,0.0,0.0
1581012840725244238,24400,1581012840723193883,,0.00604296306404,0.0125159377377,-0.095812151089,0.995302399075,0.0,0.0,0.0,0.0,0.0,0.0,0.0,0.0,0.0,0.000251,-0.001432,-0.051296,0.0,0.0,0.0,0.0,0.0,0.0,0.0,0.0,0.0,0.276,-0.077,-9.736,0.0,0.0,0.0,0.0,0.0,0.0,0.0,0.0,0.0
1581012840749368969,24401,1581012840747814893,,0.00605115343124,0.0125119799472,-0.096463554418,0.995239476995,0.0,0.0,0.0,0.0,0.0,0.0,0.0,0.0,0.0,0.001278,-0.000779,-0.05227,0.0,0.0,0.0,0.0,0.0,0.0,0.0,0.0,0.0,0.276,-0.103,-9.688,0.0,0.0,0.0,0.0,0.0,0.0,0.0,0.0,0.0
1581012840774870347,24402,1581012840773030042,,0.00605923205305,0.0125080696742,-0.0971062318712,0.995176976036,0.0,0.0,0.0,0.0,0.0,0.0,0.0,0.0,0.0,0.000243,-0.000419,-0.051592,0.0,0.0,0.0,0.0,0.0,0.0,0.0,0.0,0.0,0.256,-0.123,-9.635,0.0,0.0,0.0,0.0,0.0,0.0,0.0,0.0,0.0
1581012840799684089,24403,1581012840797975063,,0.00605777220921,0.0124963230882,-0.0977487290606,0.995114230263,0.0,0.0,0.0,0.0,0.0,0.0,0.0,0.0,0.0,0.00096,-0.000929,-0.052386,0.0,0.0,0.0,0.0,0.0,0.0,0.0,0.0,0.0,0.234,-0.088,-9.629,0.0,0.0,0.0,0.0,0.0,0.0,0.0,0.0,0.0
1581012840825406588,24404,1581012840823117017,,0.00607377557177,0.0124828133493,-0.0984000871792,0.995050105002,0.0,0.0,0.0,0.0,0.0,0.0,0.0,0.0,0.0,0.00091,-0.0012,-0.051248,0.0,0.0,0.0,0.0,0.0,0.0,0.0,0.0,0.0,0.221,-0.075,-9.676,0.0,0.0,0.0,0.0,0.0,0.0,0.0,0.0,0.0
1581012840849227771,24405,1581012840847767114,,0.00608269857451,0.0124875714755,-0.0990426725139,0.994986236266,0.0,0.0,0.0,0.0,0.0,0.0,0.0,0.0,0.0,0.002563,-4.3e-05,-0.052117,0.0,0.0,0.0,0.0,0.0,0.0,0.0,0.0,0.0,0.279,-0.069,-9.695,0.0,0.0,0.0,0.0,0.0,0.0,0.0,0.0,0.0
1581012840874331698,24406,1581012840872901916,,0.0060824059359,0.0124843515208,-0.0997111239156,0.994919512862,0.0,0.0,0.0,0.0,0.0,0.0,0.0,0.0,0.0,0.000123,-0.001235,-0.0509,0.0,0.0,0.0,0.0,0.0,0.0,0.0,0.0,0.0,0.269,-0.116,-9.661,0.0,0.0,0.0,0.0,0.0,0.0,0.0,0.0,0.0
1581012840900842999,24407,1581012840898649930,,0.00607507069998,0.0124994302545,-0.10037080007,0.994853034499,0.0,0.0,0.0,0.0,0.0,0.0,0.0,0.0,0.0,0.000763,-1.1e-05,-0.052943,0.0,0.0,0.0,0.0,0.0,0.0,0.0,0.0,0.0,0.251,-0.065,-9.67,0.0,0.0,0.0,0.0,0.0,0.0,0.0,0.0,0.0
1581012840925601127,24408,1581012840923094987,,0.00607544959853,0.0125050143005,-0.101021829284,0.99478706442,0.0,0.0,0.0,0.0,0.0,0.0,0.0,0.0,0.0,0.00091,-0.001645,-0.051497,0.0,0.0,0.0,0.0,0.0,0.0,0.0,0.0,0.0,0.256,-0.073,-9.67,0.0,0.0,0.0,0.0,0.0,0.0,0.0,0.0,0.0
1581012840950346791,24409,1581012840947896957,,0.00606538547486,0.0124941290871,-0.101672646223,0.994720956272,0.0,0.0,0.0,0.0,0.0,0.0,0.0,0.0,0.0,0.000794,-0.00078,-0.051945,0.0,0.0,0.0,0.0,0.0,0.0,0.0,0.0,0.0,0.298,-0.089,-9.709,0.0,0.0,0.0,0.0,0.0,0.0,0.0,0.0,0.0
1581012840975323989,24410,1581012840972964048,,0.00608245953649,0.0124891575258,-0.102341136711,0.994652359554,0.0,0.0,0.0,0.0,0.0,0.0,0.0,0.0,0.0,0.002756,-0.00036,-0.052446,0.0,0.0,0.0,0.0,0.0,0.0,0.0,0.0,0.0,0.258,-0.085,-9.656,0.0,0.0,0.0,0.0,0.0,0.0,0.0,0.0,0.0
1581012840999711779,24411,1581012840997850894,,0.00609819632532,0.012475702045,-0.102974833547,0.994587026115,0.0,0.0,0.0,0.0,0.0,0.0,0.0,0.0,0.0,0.001674,-5.7e-05,-0.052662,0.0,0.0,0.0,0.0,0.0,0.0,0.0,0.0,0.0,0.279,-0.089,-9.691,0.0,0.0,0.0,0.0,0.0,0.0,0.0,0.0,0.0
1581012841024703252,24412,1581012841023063898,,0.00611435344727,0.0124620181613,-0.103643203787,0.994517671585,0.0,0.0,0.0,0.0,0.0,0.0,0.0,0.0,0.0,0.002541,-0.000845,-0.050902,0.0,0.0,0.0,0.0,0.0,0.0,0.0,0.0,0.0,0.271,-0.104,-9.674,0.0,0.0,0.0,0.0,0.0,0.0,0.0,0.0,0.0
1581012841050030125,24413,1581012841047862052,,0.00613242212298,0.0124656213001,-0.104320264936,0.994446722559,0.0,0.0,0.0,0.0,0.0,0.0,0.0,0.0,0.0,0.002741,-0.001274,-0.052194,0.0,0.0,0.0,0.0,0.0,0.0,0.0,0.0,0.0,0.275,-0.109,-9.665,0.0,0.0,0.0,0.0,0.0,0.0,0.0,0.0,0.0
1581012841074360125,24414,1581012841072770118,,0.0061501720842,0.0124693666243,-0.104971244933,0.994378060909,0.0,0.0,0.0,0.0,0.0,0.0,0.0,0.0,0.0,0.000567,7e-06,-0.052275,0.0,0.0,0.0,0.0,0.0,0.0,0.0,0.0,0.0,0.254,-0.106,-9.633,0.0,0.0,0.0,0.0,0.0,0.0,0.0,0.0,0.0
1581012841099440177,24415,1581012841097827911,,0.00616733524722,0.0124642554928,-0.105648181013,0.994306325113,0.0,0.0,0.0,0.0,0.0,0.0,0.0,0.0,0.0,0.001475,-0.001572,-0.053045,0.0,0.0,0.0,0.0,0.0,0.0,0.0,0.0,0.0,0.287,-0.104,-9.664,0.0,0.0,0.0,0.0,0.0,0.0,0.0,0.0,0.0
1581012841124246069,24416,1581012841122802972,,0.00618324157414,0.0124506122073,-0.106299009259,0.994237029289,0.0,0.0,0.0,0.0,0.0,0.0,0.0,0.0,0.0,0.000528,-0.001807,-0.052471,0.0,0.0,0.0,0.0,0.0,0.0,0.0,0.0,0.0,0.28,-0.101,-9.666,0.0,0.0,0.0,0.0,0.0,0.0,0.0,0.0,0.0
1581012841148814790,24417,1581012841147624015,,0.00619264745139,0.0124550763626,-0.10697576996,0.99416432587,0.0,0.0,0.0,0.0,0.0,0.0,0.0,0.0,0.0,0.000234,-0.000531,-0.052921,0.0,0.0,0.0,0.0,0.0,0.0,0.0,0.0,0.0,0.26,-0.088,-9.635,0.0,0.0,0.0,0.0,0.0,0.0,0.0,0.0,0.0
1581012841176140231,24418,1581012841173201084,,0.006192014181,0.0124520138702,-0.107617642258,0.994095090716,0.0,0.0,0.0,0.0,0.0,0.0,0.0,0.0,0.0,0.001035,-0.000703,-0.051948,0.0,0.0,0.0,0.0,0.0,0.0,0.0,0.0,0.0,0.241,-0.1,-9.685,0.0,0.0,0.0,0.0,0.0,0.0,0.0,0.0,0.0
1581012841199234289,24419,1581012841197740077,,0.00619043588696,0.012440282761,-0.108259440344,0.994025558748,0.0,0.0,0.0,0.0,0.0,0.0,0.0,0.0,0.0,0.000843,-0.001004,-0.052113,0.0,0.0,0.0,0.0,0.0,0.0,0.0,0.0,0.0,0.241,-0.097,-9.64,0.0,0.0,0.0,0.0,0.0,0.0,0.0,0.0,0.0
1581012841224238250,24420,1581012841222785949,,0.00619074353853,0.0124459069176,-0.108901252137,0.993955376955,0.0,0.0,0.0,0.0,0.0,0.0,0.0,0.0,0.0,0.00126,-0.000366,-0.052137,0.0,0.0,0.0,0.0,0.0,0.0,0.0,0.0,0.0,0.225,-0.071,-9.67,0.0,0.0,0.0,0.0,0.0,0.0,0.0,0.0,0.0
1581012841250293123,24421,1581012841247643947,,0.00618978042594,0.0124430245108,-0.109516969297,0.993887765895,0.0,0.0,0.0,0.0,0.0,0.0,0.0,0.0,0.0,0.001876,0.000839,-0.051201,0.0,0.0,0.0,0.0,0.0,0.0,0.0,0.0,0.0,0.259,-0.069,-9.65,0.0,0.0,0.0,0.0,0.0,0.0,0.0,0.0,0.0
1581012841275326635,24422,1581012841273329973,,0.00619877472153,0.0124476975384,-0.110158800143,0.993816717896,0.0,0.0,0.0,0.0,0.0,0.0,0.0,0.0,0.0,0.001915,0.001224,-0.051943,0.0,0.0,0.0,0.0,0.0,0.0,0.0,0.0,0.0,0.241,-0.09,-9.679,0.0,0.0,0.0,0.0,0.0,0.0,0.0,0.0,0.0
1581012841299645485,24423,1581012841297703981,,0.00619921424496,0.0124532769531,-0.110809148278,0.993744342522,0.0,0.0,0.0,0.0,0.0,0.0,0.0,0.0,0.0,0.001087,-0.000957,-0.051966,0.0,0.0,0.0,0.0,0.0,0.0,0.0,0.0,0.0,0.259,-0.098,-9.707,0.0,0.0,0.0,0.0,0.0,0.0,0.0,0.0,0.0
1581012841325691870,24424,1581012841323127985,,0.00620639198275,0.0124405453673,-0.111459499876,0.993671723165,0.0,0.0,0.0,0.0,0.0,0.0,0.0,0.0,0.0,0.003214,0.000628,-0.052423,0.0,0.0,0.0,0.0,0.0,0.0,0.0,0.0,0.0,0.25,-0.101,-9.647,0.0,0.0,0.0,0.0,0.0,0.0,0.0,0.0,0.0
1581012841349296783,24425,1581012841347599029,,0.00622450679808,0.0124440102372,-0.112135982182,0.993595452699,0.0,0.0,0.0,0.0,0.0,0.0,0.0,0.0,0.0,0.001953,-0.001472,-0.052926,0.0,0.0,0.0,0.0,0.0,0.0,0.0,0.0,0.0,0.253,-0.098,-9.715,0.0,0.0,0.0,0.0,0.0,0.0,0.0,0.0,0.0
1581012841374779623,24426,1581012841373089075,,0.00623166688925,0.0124312634047,-0.112786236129,0.99352196501,0.0,0.0,0.0,0.0,0.0,0.0,0.0,0.0,0.0,-0.000339,-0.001451,-0.052261,0.0,0.0,0.0,0.0,0.0,0.0,0.0,0.0,0.0,0.29,-0.101,-9.664,0.0,0.0,0.0,0.0,0.0,0.0,0.0,0.0,0.0
1581012841400521110,24427,1581012841398096084,,0.00624868814229,0.0124260831473,-0.113453917894,0.993445899316,0.0,0.0,0.0,0.0,0.0,0.0,0.0,0.0,0.0,0.001925,-0.00014,-0.052223,0.0,0.0,0.0,0.0,0.0,0.0,0.0,0.0,0.0,0.248,-0.102,-9.704,0.0,0.0,0.0,0.0,0.0,0.0,0.0,0.0,0.0
1581012841425670188,24428,1581012841423120975,,0.0062560416482,0.0124132126163,-0.114121411336,0.993369557401,0.0,0.0,0.0,0.0,0.0,0.0,0.0,0.0,0.0,-0.000184,-0.002104,-0.05292,0.0,0.0,0.0,0.0,0.0,0.0,0.0,0.0,0.0,0.25,-0.12,-9.71,0.0,0.0,0.0,0.0,0.0,0.0,0.0,0.0,0.0
1581012841449404856,24429,1581012841447654008,,0.00627183238291,0.0123994455604,-0.114771625363,0.99329471552,0.0,0.0,0.0,0.0,0.0,0.0,0.0,0.0,0.0,0.000976,-0.001733,-0.051016,0.0,0.0,0.0,0.0,0.0,0.0,0.0,0.0,0.0,0.271,-0.107,-9.691,0.0,0.0,0.0,0.0,0.0,0.0,0.0,0.0,0.0
1581012841474774617,24430,1581012841473119020,,0.00628994479509,0.012402833689,-0.115447849772,0.993216190109,0.0,0.0,0.0,0.0,0.0,0.0,0.0,0.0,0.0,0.001741,-0.000485,-0.053535,0.0,0.0,0.0,0.0,0.0,0.0,0.0,0.0,0.0,0.269,-0.091,-9.66,0.0,0.0,0.0,0.0,0.0,0.0,0.0,0.0,0.0
1581012841500055563,24431,1581012841497880935,,0.00629907313847,0.0124073811854,-0.116097912008,0.993140298949,0.0,0.0,0.0,0.0,0.0,0.0,0.0,0.0,0.0,0.000969,0.000679,-0.0521,0.0,0.0,0.0,0.0,0.0,0.0,0.0,0.0,0.0,0.282,-0.077,-9.679,0.0,0.0,0.0,0.0,0.0,0.0,0.0,0.0,0.0
1581012841525580755,24432,1581012841523129940,,0.00628873425048,0.0123966820597,-0.116738984975,0.993065347035,0.0,0.0,0.0,0.0,0.0,0.0,0.0,0.0,0.0,0.001447,-0.00147,-0.051289,0.0,0.0,0.0,0.0,0.0,0.0,0.0,0.0,0.0,0.234,-0.08,-9.676,0.0,0.0,0.0,0.0,0.0,0.0,0.0,0.0,0.0
1581012841549650921,24433,1581012841548002004,,0.00630427252517,0.0123829834682,-0.117371668561,0.992990840485,0.0,0.0,0.0,0.0,0.0,0.0,0.0,0.0,0.0,0.002634,-0.001458,-0.051876,0.0,0.0,0.0,0.0,0.0,0.0,0.0,0.0,0.0,0.253,-0.075,-9.647,0.0,0.0,0.0,0.0,0.0,0.0,0.0,0.0,0.0
1581012841574897741,24434,1581012841573030948,,0.00629504620195,0.0123809145423,-0.118021338291,0.992913918251,0.0,0.0,0.0,0.0,0.0,0.0,0.0,0.0,0.0,0.00087,0.000774,-0.051764,0.0,0.0,0.0,0.0,0.0,0.0,0.0,0.0,0.0,0.263,-0.077,-9.679,0.0,0.0,0.0,0.0,0.0,0.0,0.0,0.0,0.0
1581012841600550674,24435,1581012841598366975,,0.00629448400986,0.0123778273936,-0.118671065593,0.992836515772,0.0,0.0,0.0,0.0,0.0,0.0,0.0,0.0,0.0,0.000355,-0.00099,-0.05201,0.0,0.0,0.0,0.0,0.0,0.0,0.0,0.0,0.0,0.245,-0.085,-9.656,0.0,0.0,0.0,0.0,0.0,0.0,0.0,0.0,0.0
1581012841627446051,24436,1581012841624825954,,0.00630258393019,0.0123737050126,-0.11932085011,0.992758633097,0.0,0.0,0.0,0.0,0.0,0.0,0.0,0.0,0.0,0.002075,-0.00109,-0.052964,0.0,0.0,0.0,0.0,0.0,0.0,0.0,0.0,0.0,0.246,-0.095,-9.711,0.0,0.0,0.0,0.0,0.0,0.0,0.0,0.0,0.0
1581012841649331842,24437,1581012841647840023,,0.00632154372531,0.0123858010231,-0.119979409918,0.992678986991,0.0,0.0,0.0,0.0,0.0,0.0,0.0,0.0,0.0,0.001605,-0.000877,-0.050807,0.0,0.0,0.0,0.0,0.0,0.0,0.0,0.0,0.0,0.237,-0.109,-9.648,0.0,0.0,0.0,0.0,0.0,0.0,0.0,0.0,0.0
1581012841675203071,24438,1581012841673085927,,0.00633820288814,0.0123806635537,-0.120620537022,0.992601245417,0.0,0.0,0.0,0.0,0.0,0.0,0.0,0.0,0.0,0.001454,-0.000951,-0.052043,0.0,0.0,0.0,0.0,0.0,0.0,0.0,0.0,0.0,0.262,-0.09,-9.679,0.0,0.0,0.0,0.0,0.0,0.0,0.0,0.0,0.0
1581012841699162646,24439,1581012841697833061,,0.00636373541945,0.012374340459,-0.121279044512,0.992520917629,0.0,0.0,0.0,0.0,0.0,0.0,0.0,0.0,0.0,0.001715,-0.001938,-0.051864,0.0,0.0,0.0,0.0,0.0,0.0,0.0,0.0,0.0,0.251,-0.075,-9.661,0.0,0.0,0.0,0.0,0.0,0.0,0.0,0.0,0.0
1581012841725190867,24440,1581012841722948074,,0.00636210941826,0.0123625759624,-0.121928486192,0.99244150182,0.0,0.0,0.0,0.0,0.0,0.0,0.0,0.0,0.0,0.000975,-0.002316,-0.052291,0.0,0.0,0.0,0.0,0.0,0.0,0.0,0.0,0.0,0.269,-0.108,-9.671,0.0,0.0,0.0,0.0,0.0,0.0,0.0,0.0,0.0
1581012841749233046,24441,1581012841747895002,,0.00637266055146,0.0123755627341,-0.122604046754,0.992358041416,0.0,0.0,0.0,0.0,0.0,0.0,0.0,0.0,0.0,0.001011,-0.000338,-0.053126,0.0,0.0,0.0,0.0,0.0,0.0,0.0,0.0,0.0,0.273,-0.087,-9.691,0.0,0.0,0.0,0.0,0.0,0.0,0.0,0.0,0.0
1581012841775218503,24442,1581012841773093938,,0.00638834372695,0.0123616542061,-0.123253597551,0.992277647264,0.0,0.0,0.0,0.0,0.0,0.0,0.0,0.0,0.0,0.002172,-2.7e-05,-0.051537,0.0,0.0,0.0,0.0,0.0,0.0,0.0,0.0,0.0,0.252,-0.09,-9.691,0.0,0.0,0.0,0.0,0.0,0.0,0.0,0.0,0.0
1581012841799535403,24443,1581012841797844886,,0.0064039036694,0.012347786338,-0.123894436905,0.992197909035,0.0,0.0,0.0,0.0,0.0,0.0,0.0,0.0,0.0,0.002092,-0.001133,-0.051424,0.0,0.0,0.0,0.0,0.0,0.0,0.0,0.0,0.0,0.256,-0.111,-9.695,0.0,0.0,0.0,0.0,0.0,0.0,0.0,0.0,0.0
1581012841824288781,24444,1581012841822885990,,0.00642096487874,0.012342337402,-0.124569883557,0.992113290924,0.0,0.0,0.0,0.0,0.0,0.0,0.0,0.0,0.0,0.001361,-0.001731,-0.052887,0.0,0.0,0.0,0.0,0.0,0.0,0.0,0.0,0.0,0.264,-0.089,-9.677,0.0,0.0,0.0,0.0,0.0,0.0,0.0,0.0,0.0
1581012841849394458,24445,1581012841847809076,,0.00643889803846,0.012345640559,-0.125227985903,0.992030280434,0.0,0.0,0.0,0.0,0.0,0.0,0.0,0.0,0.0,0.001401,-0.001068,-0.052124,0.0,0.0,0.0,0.0,0.0,0.0,0.0,0.0,0.0,0.268,-0.097,-9.698,0.0,0.0,0.0,0.0,0.0,0.0,0.0,0.0,0.0
1581012841874901137,24446,1581012841873069047,,0.00645584861993,0.0123402125056,-0.12589466177,0.991945853014,0.0,0.0,0.0,0.0,0.0,0.0,0.0,0.0,0.0,0.001182,-0.000838,-0.051423,0.0,0.0,0.0,0.0,0.0,0.0,0.0,0.0,0.0,0.254,-0.062,-9.667,0.0,0.0,0.0,0.0,0.0,0.0,0.0,0.0,0.0
1581012841900147694,24447,1581012841897892951,,0.00645516058525,0.0123371451552,-0.1265350985,0.991864403333,0.0,0.0,0.0,0.0,0.0,0.0,0.0,0.0,0.0,0.00116,-0.00053,-0.051371,0.0,0.0,0.0,0.0,0.0,0.0,0.0,0.0,0.0,0.24,-0.091,-9.673,0.0,0.0,0.0,0.0,0.0,0.0,0.0,0.0,0.0
1581012841924979974,24448,1581012841923070907,,0.0064632338447,0.0123329176203,-0.127184245085,0.991781373869,0.0,0.0,0.0,0.0,0.0,0.0,0.0,0.0,0.0,0.002567,-0.000247,-0.051969,0.0,0.0,0.0,0.0,0.0,0.0,0.0,0.0,0.0,0.258,-0.075,-9.678,0.0,0.0,0.0,0.0,0.0,0.0,0.0,0.0,0.0
1581012841949675799,24449,1581012841947736978,,0.00646243494173,0.0123299131509,-0.127815921182,0.991700206952,0.0,0.0,0.0,0.0,0.0,0.0,0.0,0.0,0.0,0.001135,-0.000587,-0.050146,0.0,0.0,0.0,0.0,0.0,0.0,0.0,0.0,0.0,0.251,-0.076,-9.703,0.0,0.0,0.0,0.0,0.0,0.0,0.0,0.0,0.0
1581012841976738757,24450,1581012841974785089,,0.0064706110279,0.0123256243903,-0.128473613508,0.991615218121,0.0,0.0,0.0,0.0,0.0,0.0,0.0,0.0,0.0,0.001565,-0.000428,-0.052504,0.0,0.0,0.0,0.0,0.0,0.0,0.0,0.0,0.0,0.232,-0.09,-9.699,0.0,0.0,0.0,0.0,0.0,0.0,0.0,0.0,0.0
1581012841999941781,24451,1581012841997865915,,0.00647980245837,0.012330039627,-0.12912262371,0.991530801503,0.0,0.0,0.0,0.0,0.0,0.0,0.0,0.0,0.0,0.002333,-0.000848,-0.052737,0.0,0.0,0.0,0.0,0.0,0.0,0.0,0.0,0.0,0.245,-0.078,-9.684,0.0,0.0,0.0,0.0,0.0,0.0,0.0,0.0,0.0
1581012842024720697,24452,1581012842022773981,,0.00647787268832,0.0123183893547,-0.12975411284,0.991448518406,0.0,0.0,0.0,0.0,0.0,0.0,0.0,0.0,0.0,0.001638,0.000202,-0.050596,0.0,0.0,0.0,0.0,0.0,0.0,0.0,0.0,0.0,0.269,-0.086,-9.681,0.0,0.0,0.0,0.0,0.0,0.0,0.0,0.0,0.0
1581012842049993930,24453,1581012842047843933,,0.00648842267083,0.0123313365563,-0.130420342852,0.991360869048,0.0,0.0,0.0,0.0,0.0,0.0,0.0,0.0,0.0,0.001111,0.001618,-0.052551,0.0,0.0,0.0,0.0,0.0,0.0,0.0,0.0,0.0,0.264,-0.113,-9.657,0.0,0.0,0.0,0.0,0.0,0.0,0.0,0.0,0.0
1581012842074469248,24454,1581012842072743892,,0.00649524191964,0.0123184932813,-0.131060481723,0.991276559133,0.0,0.0,0.0,0.0,0.0,0.0,0.0,0.0,0.0,0.001491,-0.001501,-0.051632,0.0,0.0,0.0,0.0,0.0,0.0,0.0,0.0,0.0,0.238,-0.067,-9.715,0.0,0.0,0.0,0.0,0.0,0.0,0.0,0.0,0.0
1581012842099511085,24455,1581012842097670078,,0.00650319550063,0.0123142962688,-0.131700592822,0.991191717281,0.0,0.0,0.0,0.0,0.0,0.0,0.0,0.0,0.0,0.002123,-0.000407,-0.051683,0.0,0.0,0.0,0.0,0.0,0.0,0.0,0.0,0.0,0.287,-0.099,-9.654,0.0,0.0,0.0,0.0,0.0,0.0,0.0,0.0,0.0
1581012842125864606,24456,1581012842123912096,,0.00651009992009,0.0123013881286,-0.132349271367,0.991105425683,0.0,0.0,0.0,0.0,0.0,0.0,0.0,0.0,0.0,-8e-06,-0.000436,-0.052821,0.0,0.0,0.0,0.0,0.0,0.0,0.0,0.0,0.0,0.281,-0.101,-9.689,0.0,0.0,0.0,0.0,0.0,0.0,0.0,0.0,0.0
1581012842149089618,24457,1581012842147631883,,0.00651930930062,0.0123057730581,-0.132997946543,0.991018472467,0.0,0.0,0.0,0.0,0.0,0.0,0.0,0.0,0.0,0.002848,0.000383,-0.051986,0.0,0.0,0.0,0.0,0.0,0.0,0.0,0.0,0.0,0.233,-0.093,-9.652,0.0,0.0,0.0,0.0,0.0,0.0,0.0,0.0,0.0
1581012842173967537,24458,1581012842172739982,,0.00653600951927,0.0123003372582,-0.13364664543,0.990931156261,0.0,0.0,0.0,0.0,0.0,0.0,0.0,0.0,0.0,0.001593,-0.000595,-0.052543,0.0,0.0,0.0,0.0,0.0,0.0,0.0,0.0,0.0,0.269,-0.089,-9.714,0.0,0.0,0.0,0.0,0.0,0.0,0.0,0.0,0.0
1581012842200198466,24459,1581012842198035955,,0.00652453064776,0.0122810499904,-0.134303559076,0.990842651651,0.0,0.0,0.0,0.0,0.0,0.0,0.0,0.0,0.0,0.001701,-0.001911,-0.050856,0.0,0.0,0.0,0.0,0.0,0.0,0.0,0.0,0.0,0.266,-0.06,-9.71,0.0,0.0,0.0,0.0,0.0,0.0,0.0,0.0,0.0
1581012842224698660,24460,1581012842223253011,,0.00652253047955,0.0122694224717,-0.13493460995,0.990757068562,0.0,0.0,0.0,0.0,0.0,0.0,0.0,0.0,0.0,0.001724,-0.001603,-0.050564,0.0,0.0,0.0,0.0,0.0,0.0,0.0,0.0,0.0,0.282,-0.094,-9.683,0.0,0.0,0.0,0.0,0.0,0.0,0.0,0.0,0.0
1581012842249518077,24461,1581012842247670888,,0.006529056422,0.0122566764297,-0.135557068141,0.990672209453,0.0,0.0,0.0,0.0,0.0,0.0,0.0,0.0,0.0,0.002194,-0.00078,-0.051199,0.0,0.0,0.0,0.0,0.0,0.0,0.0,0.0,0.0,0.268,-0.086,-9.646,0.0,0.0,0.0,0.0,0.0,0.0,0.0,0.0,0.0
1581012842275125734,24462,1581012842273056030,,0.00652735185122,0.0122448875827,-0.136213944027,0.990582262035,0.0,0.0,0.0,0.0,0.0,0.0,0.0,0.0,0.0,0.000876,-6.6e-05,-0.052003,0.0,0.0,0.0,0.0,0.0,0.0,0.0,0.0,0.0,0.265,-0.081,-9.665,0.0,0.0,0.0,0.0,0.0,0.0,0.0,0.0,0.0
1581012842299929001,24463,1581012842298001050,,0.00652682786106,0.0122417502097,-0.136870786232,0.990491760665,0.0,0.0,0.0,0.0,0.0,0.0,0.0,0.0,0.0,0.001134,-0.00016,-0.051309,0.0,0.0,0.0,0.0,0.0,0.0,0.0,0.0,0.0,0.273,-0.098,-9.629,0.0,0.0,0.0,0.0,0.0,0.0,0.0,0.0,0.0
1581012842324775482,24464,1581012842323172092,,0.00653614453797,0.0122460617878,-0.137527700877,0.990400648362,0.0,0.0,0.0,0.0,0.0,0.0,0.0,0.0,0.0,0.000321,0.000512,-0.051748,0.0,0.0,0.0,0.0,0.0,0.0,0.0,0.0,0.0,0.267,-0.092,-9.686,0.0,0.0,0.0,0.0,0.0,0.0,0.0,0.0,0.0
1581012842350138768,24465,1581012842348192930,,0.00653824651539,0.0122601003906,-0.138201757691,0.990306626981,0.0,0.0,0.0,0.0,0.0,0.0,0.0,0.0,0.0,0.001631,-0.000194,-0.051951,0.0,0.0,0.0,0.0,0.0,0.0,0.0,0.0,0.0,0.27,-0.109,-9.623,0.0,0.0,0.0,0.0,0.0,0.0,0.0,0.0,0.0
1581012842375420301,24466,1581012842373127937,,0.00655523141815,0.012254435187,-0.138875912906,0.990212269452,0.0,0.0,0.0,0.0,0.0,0.0,0.0,0.0,0.0,0.000152,0.000636,-0.052985,0.0,0.0,0.0,0.0,0.0,0.0,0.0,0.0,0.0,0.256,-0.084,-9.684,0.0,0.0,0.0,0.0,0.0,0.0,0.0,0.0,0.0
1581012842399520044,24467,1581012842397751092,,0.00655471699826,0.0122513025493,-0.139532509054,0.990120002923,0.0,0.0,0.0,0.0,0.0,0.0,0.0,0.0,0.0,0.00098,-0.00062,-0.052971,0.0,0.0,0.0,0.0,0.0,0.0,0.0,0.0,0.0,0.281,-0.064,-9.7,0.0,0.0,0.0,0.0,0.0,0.0,0.0,0.0,0.0
1581012842425043835,24468,1581012842423180103,,0.00654566858745,0.0122493422414,-0.140197576614,0.99002613468,0.0,0.0,0.0,0.0,0.0,0.0,0.0,0.0,0.0,0.000445,-0.000676,-0.051659,0.0,0.0,0.0,0.0,0.0,0.0,0.0,0.0,0.0,0.279,-0.075,-9.666,0.0,0.0,0.0,0.0,0.0,0.0,0.0,0.0,0.0
1581012842449492940,24469,1581012842448015928,,0.00655224275874,0.0122365308896,-0.140828214357,0.989936740134,0.0,0.0,0.0,0.0,0.0,0.0,0.0,0.0,0.0,0.001702,-0.001182,-0.05263,0.0,0.0,0.0,0.0,0.0,0.0,0.0,0.0,0.0,0.257,-0.069,-9.634,0.0,0.0,0.0,0.0,0.0,0.0,0.0,0.0,0.0
1581012842474879265,24470,1581012842473098039,,0.00654286733319,0.0122347661557,-0.141467244687,0.989845705181,0.0,0.0,0.0,0.0,0.0,0.0,0.0,0.0,0.0,0.001057,-0.001001,-0.050282,0.0,0.0,0.0,0.0,0.0,0.0,0.0,0.0,0.0,0.268,-0.081,-9.674,0.0,0.0,0.0,0.0,0.0,0.0,0.0,0.0,0.0
1581012842499872225,24471,1581012842498035907,,0.00655951079019,0.0122292410505,-0.142115173565,0.989752845878,0.0,0.0,0.0,0.0,0.0,0.0,0.0,0.0,0.0,0.001237,-0.000649,-0.052744,0.0,0.0,0.0,0.0,0.0,0.0,0.0,0.0,0.0,0.25,-0.092,-9.692,0.0,0.0,0.0,0.0,0.0,0.0,0.0,0.0,0.0
1581012842524670079,24472,1581012842523104906,,0.00657614981339,0.0122236993996,-0.14276304148,0.989659562382,0.0,0.0,0.0,0.0,0.0,0.0,0.0,0.0,0.0,0.001796,-0.00256,-0.051632,0.0,0.0,0.0,0.0,0.0,0.0,0.0,0.0,0.0,0.26,-0.083,-9.678,0.0,0.0,0.0,0.0,0.0,0.0,0.0,0.0,0.0
1581012842549695954,24473,1581012842547995090,,0.00659289101143,0.0122180836732,-0.14341948374,0.989564603198,0.0,0.0,0.0,0.0,0.0,0.0,0.0,0.0,0.0,0.001519,-0.000574,-0.050997,0.0,0.0,0.0,0.0,0.0,0.0,0.0,0.0,0.0,0.255,-0.097,-9.662,0.0,0.0,0.0,0.0,0.0,0.0,0.0,0.0,0.0
1581012842574763242,24474,1581012842573117971,,0.00660088631583,0.0122137660195,-0.144067121494,0.989470523424,0.0,0.0,0.0,0.0,0.0,0.0,0.0,0.0,0.0,0.001251,-0.001099,-0.051411,0.0,0.0,0.0,0.0,0.0,0.0,0.0,0.0,0.0,0.248,-0.097,-9.677,0.0,0.0,0.0,0.0,0.0,0.0,0.0,0.0,0.0
1581012842599724102,24475,1581012842597924947,,0.00660909188659,0.0122093277853,-0.144731965381,0.989373493892,0.0,0.0,0.0,0.0,0.0,0.0,0.0,0.0,0.0,0.002278,0.000961,-0.05195,0.0,0.0,0.0,0.0,0.0,0.0,0.0,0.0,0.0,0.26,-0.117,-9.68,0.0,0.0,0.0,0.0,0.0,0.0,0.0,0.0,0.0
1581012842625159753,24476,1581012842623250961,,0.00663445411013,0.0122024042815,-0.145388323846,0.989277170786,0.0,0.0,0.0,0.0,0.0,0.0,0.0,0.0,0.0,0.001307,-0.001679,-0.052121,0.0,0.0,0.0,0.0,0.0,0.0,0.0,0.0,0.0,0.243,-0.086,-9.633,0.0,0.0,0.0,0.0,0.0,0.0,0.0,0.0,0.0
1581012842649354674,24477,1581012842647921085,,0.00664381899054,0.0122066338488,-0.146044430029,0.989180409337,0.0,0.0,0.0,0.0,0.0,0.0,0.0,0.0,0.0,0.00055,-0.000891,-0.051913,0.0,0.0,0.0,0.0,0.0,0.0,0.0,0.0,0.0,0.27,-0.068,-9.616,0.0,0.0,0.0,0.0,0.0,0.0,0.0,0.0,0.0
1581012842674690309,24478,1581012842672986984,,0.00664178992745,0.0121949894012,-0.146683053289,0.989086068418,0.0,0.0,0.0,0.0,0.0,0.0,0.0,0.0,0.0,0.001513,0.000256,-0.051593,0.0,0.0,0.0,0.0,0.0,0.0,0.0,0.0,0.0,0.251,-0.108,-9.642,0.0,0.0,0.0,0.0,0.0,0.0,0.0,0.0,0.0
1581012842699624343,24479,1581012842697971105,,0.006649982872,0.012190523686,-0.14734763825,0.988987281193,0.0,0.0,0.0,0.0,0.0,0.0,0.0,0.0,0.0,0.002046,-0.000654,-0.051591,0.0,0.0,0.0,0.0,0.0,0.0,0.0,0.0,0.0,0.267,-0.086,-9.67,0.0,0.0,0.0,0.0,0.0,0.0,0.0,0.0,0.0
1581012842724781334,24480,1581012842723150968,,0.00665191127417,0.0122047198883,-0.147994839659,0.988890451124,0.0,0.0,0.0,0.0,0.0,0.0,0.0,0.0,0.0,0.001431,0.001272,-0.052066,0.0,0.0,0.0,0.0,0.0,0.0,0.0,0.0,0.0,0.253,-0.096,-9.664,0.0,0.0,0.0,0.0,0.0,0.0,0.0,0.0,0.0
1581012842749509911,24481,1581012842747911930,,0.00664274660894,0.0122028999315,-0.148650451087,0.988792195834,0.0,0.0,0.0,0.0,0.0,0.0,0.0,0.0,0.0,0.000353,0.000196,-0.052656,0.0,0.0,0.0,0.0,0.0,0.0,0.0,0.0,0.0,0.262,-0.093,-9.66,0.0,0.0,0.0,0.0,0.0,0.0,0.0,0.0,0.0
1581012842774362405,24482,1581012842773030996,,0.0066508384171,0.0121984916116,-0.149306210164,0.98869338966,0.0,0.0,0.0,0.0,0.0,0.0,0.0,0.0,0.0,0.0026,-0.000602,-0.05142,0.0,0.0,0.0,0.0,0.0,0.0,0.0,0.0,0.0,0.263,-0.112,-9.664,0.0,0.0,0.0,0.0,0.0,0.0,0.0,0.0,0.0
1581012842799729704,24483,1581012842798032999,,0.00665270222352,0.0122127572497,-0.149944590637,0.988596586001,0.0,0.0,0.0,0.0,0.0,0.0,0.0,0.0,0.0,0.001685,-0.000406,-0.051778,0.0,0.0,0.0,0.0,0.0,0.0,0.0,0.0,0.0,0.261,-0.064,-9.66,0.0,0.0,0.0,0.0,0.0,0.0,0.0,0.0,0.0
1581012842826440011,24484,1581012842823178052,,0.00666080056711,0.0122083423248,-0.150600219696,0.988496921564,0.0,0.0,0.0,0.0,0.0,0.0,0.0,0.0,0.0,0.000633,-0.00059,-0.052177,0.0,0.0,0.0,0.0,0.0,0.0,0.0,0.0,0.0,0.259,-0.103,-9.67,0.0,0.0,0.0,0.0,0.0,0.0,0.0,0.0,0.0
1581012842851501337,24485,1581012842847805023,,0.0066686829812,0.0122040384222,-0.151238531709,0.98839946208,0.0,0.0,0.0,0.0,0.0,0.0,0.0,0.0,0.0,0.001417,-0.000491,-0.05171,0.0,0.0,0.0,0.0,0.0,0.0,0.0,0.0,0.0,0.235,-0.113,-9.653,0.0,0.0,0.0,0.0,0.0,0.0,0.0,0.0,0.0
1581012842874842078,24486,1581012842873106002,,0.00669359884984,0.0121971955058,-0.151859744417,0.988304124337,0.0,0.0,0.0,0.0,0.0,0.0,0.0,0.0,0.0,0.002151,-0.000487,-0.051703,0.0,0.0,0.0,0.0,0.0,0.0,0.0,0.0,0.0,0.233,-0.081,-9.644,0.0,0.0,0.0,0.0,0.0,0.0,0.0,0.0,0.0
1581012842899920055,24487,1581012842897959947,,0.00670866174483,0.012182974285,-0.152489390552,0.988207242821,0.0,0.0,0.0,0.0,0.0,0.0,0.0,0.0,0.0,0.001346,-0.00197,-0.051776,0.0,0.0,0.0,0.0,0.0,0.0,0.0,0.0,0.0,0.246,-0.11,-9.68,0.0,0.0,0.0,0.0,0.0,0.0,0.0,0.0,0.0
1581012842924872614,24488,1581012842923281908,,0.00671663404539,0.0121785808671,-0.153136137973,0.988107227097,0.0,0.0,0.0,0.0,0.0,0.0,0.0,0.0,0.0,0.00127,-0.000279,-0.052076,0.0,0.0,0.0,0.0,0.0,0.0,0.0,0.0,0.0,0.264,-0.088,-9.67,0.0,0.0,0.0,0.0,0.0,0.0,0.0,0.0,0.0
1581012842949578627,24489,1581012842947782993,,0.00672605071614,0.0121827456894,-0.1537914654,0.988005326969,0.0,0.0,0.0,0.0,0.0,0.0,0.0,0.0,0.0,0.000773,0.000469,-0.051914,0.0,0.0,0.0,0.0,0.0,0.0,0.0,0.0,0.0,0.263,-0.13,-9.676,0.0,0.0,0.0,0.0,0.0,0.0,0.0,0.0,0.0
1581012842975629187,24490,1581012842973022937,,0.00673412913918,0.0121782821246,-0.154446701476,0.987903111318,0.0,0.0,0.0,0.0,0.0,0.0,0.0,0.0,0.0,0.000531,-0.000193,-0.051686,0.0,0.0,0.0,0.0,0.0,0.0,0.0,0.0,0.0,0.252,-0.079,-9.623,0.0,0.0,0.0,0.0,0.0,0.0,0.0,0.0,0.0
1581012842999065294,24491,1581012842997781991,,0.00673607650351,0.0121925249969,-0.15508456973,0.987802988373,0.0,0.0,0.0,0.0,0.0,0.0,0.0,0.0,0.0,0.001255,-2.4e-05,-0.052181,0.0,0.0,0.0,0.0,0.0,0.0,0.0,0.0,0.0,0.272,-0.092,-9.665,0.0,0.0,0.0,0.0,0.0,0.0,0.0,0.0,0.0
1581012843025272685,24492,1581012843023144960,,0.00674301597043,0.0121793176168,-0.155756886627,0.987697316097,0.0,0.0,0.0,0.0,0.0,0.0,0.0,0.0,0.0,0.000799,-0.001419,-0.052282,0.0,0.0,0.0,0.0,0.0,0.0,0.0,0.0,0.0,0.269,-0.078,-9.663,0.0,0.0,0.0,0.0,0.0,0.0,0.0,0.0,0.0
1581012843050097677,24493,1581012843048208951,,0.00674247373419,0.012176207752,-0.156411811738,0.987593855875,0.0,0.0,0.0,0.0,0.0,0.0,0.0,0.0,0.0,0.001537,-0.000866,-0.05281,0.0,0.0,0.0,0.0,0.0,0.0,0.0,0.0,0.0,0.258,-0.096,-9.624,0.0,0.0,0.0,0.0,0.0,0.0,0.0,0.0,0.0
1581012843075619144,24494,1581012843073189973,,0.00674319363096,0.0121817804534,-0.157058073615,0.987491212658,0.0,0.0,0.0,0.0,0.0,0.0,0.0,0.0,0.0,0.002214,0.00018,-0.051032,0.0,0.0,0.0,0.0,0.0,0.0,0.0,0.0,0.0,0.29,-0.072,-9.678,0.0,0.0,0.0,0.0,0.0,0.0,0.0,0.0,0.0
1581012843099478416,24495,1581012843097702980,,0.00674254855491,0.0121787406643,-0.157704245143,0.987388265769,0.0,0.0,0.0,0.0,0.0,0.0,0.0,0.0,0.0,0.002042,-0.000662,-0.049809,0.0,0.0,0.0,0.0,0.0,0.0,0.0,0.0,0.0,0.286,-0.084,-9.675,0.0,0.0,0.0,0.0,0.0,0.0,0.0,0.0,0.0
1581012843124996920,24496,1581012843123629093,,0.00675338606645,0.0121914978464,-0.15835911657,0.987283216385,0.0,0.0,0.0,0.0,0.0,0.0,0.0,0.0,0.0,0.003227,-0.000777,-0.052699,0.0,0.0,0.0,0.0,0.0,0.0,0.0,0.0,0.0,0.264,-0.05,-9.688,0.0,0.0,0.0,0.0,0.0,0.0,0.0,0.0,0.0
1581012843149534690,24497,1581012843147981882,,0.0067697660195,0.0121858057281,-0.158988134752,0.987182075108,0.0,0.0,0.0,0.0,0.0,0.0,0.0,0.0,0.0,0.001914,0.00065,-0.052592,0.0,0.0,0.0,0.0,0.0,0.0,0.0,0.0,0.0,0.266,-0.077,-9.681,0.0,0.0,0.0,0.0,0.0,0.0,0.0,0.0,0.0
1581012843177214018,24498,1581012843174365043,,0.00678485582486,0.0121714244022,-0.159625679501,0.987079259535,0.0,0.0,0.0,0.0,0.0,0.0,0.0,0.0,0.0,0.002202,-0.002547,-0.05133,0.0,0.0,0.0,0.0,0.0,0.0,0.0,0.0,0.0,0.269,-0.09,-9.671,0.0,0.0,0.0,0.0,0.0,0.0,0.0,0.0,0.0
1581012843199281353,24499,1581012843197750091,,0.00680143352744,0.0121655824831,-0.160271793301,0.986974514046,0.0,0.0,0.0,0.0,0.0,0.0,0.0,0.0,0.0,0.001606,-0.000269,-0.052211,0.0,0.0,0.0,0.0,0.0,0.0,0.0,0.0,0.0,0.259,-0.094,-9.687,0.0,0.0,0.0,0.0,0.0,0.0,0.0,0.0,0.0
1581012843224929137,24500,1581012843223071098,,0.00683382740931,0.0121483032941,-0.16091802768,0.98686934591,0.0,0.0,0.0,0.0,0.0,0.0,0.0,0.0,0.0,0.000712,-0.000499,-0.052059,0.0,0.0,0.0,0.0,0.0,0.0,0.0,0.0,0.0,0.264,-0.118,-9.664,0.0,0.0,0.0,0.0,0.0,0.0,0.0,0.0,0.0
1581012843251534865,24501,1581012843247843027,,0.00685759043839,0.0121323968234,-0.161564086607,0.986763813848,0.0,0.0,0.0,0.0,0.0,0.0,0.0,0.0,0.0,0.000427,-0.002061,-0.051391,0.0,0.0,0.0,0.0,0.0,0.0,0.0,0.0,0.0,0.264,-0.117,-9.659,0.0,0.0,0.0,0.0,0.0,0.0,0.0,0.0,0.0
1581012843274284774,24502,1581012843272793054,,0.00688448215087,0.0121335050044,-0.162235952625,0.986653372587,0.0,0.0,0.0,0.0,0.0,0.0,0.0,0.0,0.0,0.000861,-3.2e-05,-0.052027,0.0,0.0,0.0,0.0,0.0,0.0,0.0,0.0,0.0,0.249,-0.151,-9.672,0.0,0.0,0.0,0.0,0.0,0.0,0.0,0.0,0.0
1581012843300156603,24503,1581012843297910928,,0.00689416011841,0.0121374254639,-0.162907531574,0.986542593919,0.0,0.0,0.0,0.0,0.0,0.0,0.0,0.0,0.0,0.00069,-0.001016,-0.052204,0.0,0.0,0.0,0.0,0.0,0.0,0.0,0.0,0.0,0.246,-0.093,-9.685,0.0,0.0,0.0,0.0,0.0,0.0,0.0,0.0,0.0
1581012843325257042,24504,1581012843323621988,,0.00689360018322,0.0121342777601,-0.163561689638,0.986434392782,0.0,0.0,0.0,0.0,0.0,0.0,0.0,0.0,0.0,-0.000287,0.000472,-0.051254,0.0,0.0,0.0,0.0,0.0,0.0,0.0,0.0,0.0,0.276,-0.106,-9.691,0.0,0.0,0.0,0.0,0.0,0.0,0.0,0.0,0.0
1581012843349500752,24505,1581012843347868919,,0.00687582447553,0.0121340022405,-0.164215564071,0.986325877965,0.0,0.0,0.0,0.0,0.0,0.0,0.0,0.0,0.0,-0.000777,0.000294,-0.051167,0.0,0.0,0.0,0.0,0.0,0.0,0.0,0.0,0.0,0.267,-0.076,-9.653,0.0,0.0,0.0,0.0,0.0,0.0,0.0,0.0,0.0
1581012843374786011,24506,1581012843373218059,,0.00685836909991,0.0121335760792,-0.164895185438,0.986212612434,0.0,0.0,0.0,0.0,0.0,0.0,0.0,0.0,0.0,0.000749,-0.000821,-0.05355,0.0,0.0,0.0,0.0,0.0,0.0,0.0,0.0,0.0,0.29,-0.047,-9.684,0.0,0.0,0.0,0.0,0.0,0.0,0.0,0.0,0.0
1581012843399885225,24507,1581012843397810935,,0.00684503572556,0.0121591157546,-0.165557583393,0.986101408564,0.0,0.0,0.0,0.0,0.0,0.0,0.0,0.0,0.0,0.000558,-0.001448,-0.05149,0.0,0.0,0.0,0.0,0.0,0.0,0.0,0.0,0.0,0.263,-0.077,-9.688,0.0,0.0,0.0,0.0,0.0,0.0,0.0,0.0,0.0
1581012843424476172,24508,1581012843423130035,,0.00683588965327,0.0121574742181,-0.166211341992,0.985991509206,0.0,0.0,0.0,0.0,0.0,0.0,0.0,0.0,0.0,0.002325,-0.000193,-0.053437,0.0,0.0,0.0,0.0,0.0,0.0,0.0,0.0,0.0,0.263,-0.086,-9.68,0.0,0.0,0.0,0.0,0.0,0.0,0.0,0.0,0.0
1581012843450584384,24509,1581012843448210954,,0.00684384523684,0.0121529975352,-0.16685663628,0.985882512961,0.0,0.0,0.0,0.0,0.0,0.0,0.0,0.0,0.0,0.002159,0.000542,-0.051155,0.0,0.0,0.0,0.0,0.0,0.0,0.0,0.0,0.0,0.282,-0.081,-9.648,0.0,0.0,0.0,0.0,0.0,0.0,0.0,0.0,0.0
1581012843474619174,24510,1581012843473169088,,0.00685325855175,0.01215711832,-0.16750188052,0.985772974545,0.0,0.0,0.0,0.0,0.0,0.0,0.0,0.0,0.0,0.001805,-0.000259,-0.052265,0.0,0.0,0.0,0.0,0.0,0.0,0.0,0.0,0.0,0.255,-0.08,-9.656,0.0,0.0,0.0,0.0,0.0,0.0,0.0,0.0,0.0
1581012843499252223,24511,1581012843497998952,,0.00688009545643,0.0121581771842,-0.168164468103,0.985659958952,0.0,0.0,0.0,0.0,0.0,0.0,0.0,0.0,0.0,0.001832,-0.001253,-0.051673,0.0,0.0,0.0,0.0,0.0,0.0,0.0,0.0,0.0,0.179,-0.117,-9.719,0.0,0.0,0.0,0.0,0.0,0.0,0.0,0.0,0.0
1581012843525193504,24512,1581012843523281097,,0.00688647343446,0.0121451309374,-0.168800923016,0.985551277543,0.0,0.0,0.0,0.0,0.0,0.0,0.0,0.0,0.0,0.002369,-0.000877,-0.051675,0.0,0.0,0.0,0.0,0.0,0.0,0.0,0.0,0.0,0.095,0.222,-9.867,0.0,0.0,0.0,0.0,0.0,0.0,0.0,0.0,0.0
1581012843549322635,24513,1581012843548007965,,0.0069058696806,0.0121564022691,-0.169437477759,0.985441764884,0.0,0.0,0.0,0.0,0.0,0.0,0.0,0.0,0.0,0.000886,0.00094,-0.053069,0.0,0.0,0.0,0.0,0.0,0.0,0.0,0.0,0.0,0.272,0.126,-9.563,0.0,0.0,0.0,0.0,0.0,0.0,0.0,0.0,0.0
1581012843574843189,24514,1581012843573163986,,0.00692231714695,0.0121504559441,-0.17007391895,0.985332081097,0.0,0.0,0.0,0.0,0.0,0.0,0.0,0.0,0.0,0.001335,-0.00032,-0.052294,0.0,0.0,0.0,0.0,0.0,0.0,0.0,0.0,0.0,0.343,-0.188,-9.449,0.0,0.0,0.0,0.0,0.0,0.0,0.0,0.0,0.0
1581012843599586516,24515,1581012843598130941,,0.00692877939147,0.012137324838,-0.170718759504,0.985220677064,0.0,0.0,0.0,0.0,0.0,0.0,0.0,0.0,0.0,0.002191,0.000658,-0.052485,0.0,0.0,0.0,0.0,0.0,0.0,0.0,0.0,0.0,0.257,-0.153,-9.619,0.0,0.0,0.0,0.0,0.0,0.0,0.0,0.0,0.0
1581012843625397693,24516,1581012843624202966,,0.0069367217674,0.0121327873632,-0.171363548318,0.985108730887,0.0,0.0,0.0,0.0,0.0,0.0,0.0,0.0,0.0,0.002183,0.001369,-0.051264,0.0,0.0,0.0,0.0,0.0,0.0,0.0,0.0,0.0,0.226,-0.094,-9.701,0.0,0.0,0.0,0.0,0.0,0.0,0.0,0.0,0.0
1581012843649482760,24517,1581012843648004055,,0.00693756543819,0.012138341648,-0.172008178959,0.98499630315,0.0,0.0,0.0,0.0,0.0,0.0,0.0,0.0,0.0,-0.000535,0.001893,-0.051596,0.0,0.0,0.0,0.0,0.0,0.0,0.0,0.0,0.0,0.209,-0.092,-9.703,0.0,0.0,0.0,0.0,0.0,0.0,0.0,0.0,0.0
1581012843674863096,24518,1581012843673149108,,0.00693691374745,0.0121353051022,-0.172652714751,0.984883573671,0.0,0.0,0.0,0.0,0.0,0.0,0.0,0.0,0.0,-0.000349,-0.001332,-0.051703,0.0,0.0,0.0,0.0,0.0,0.0,0.0,0.0,0.0,0.223,-0.111,-9.67,0.0,0.0,0.0,0.0,0.0,0.0,0.0,0.0,0.0
1581012843700958245,24519,1581012843698534965,,0.00693474982262,0.0121236806758,-0.173297155877,0.9847705425,0.0,0.0,0.0,0.0,0.0,0.0,0.0,0.0,0.0,-0.000164,-0.000421,-0.052458,0.0,0.0,0.0,0.0,0.0,0.0,0.0,0.0,0.0,0.23,-0.111,-9.644,0.0,0.0,0.0,0.0,0.0,0.0,0.0,0.0,0.0
1581012843724870819,24520,1581012843723419904,,0.00694268326719,0.0121191392963,-0.173941649527,0.984656908863,0.0,0.0,0.0,0.0,0.0,0.0,0.0,0.0,0.0,0.003057,-0.000727,-0.052094,0.0,0.0,0.0,0.0,0.0,0.0,0.0,0.0,0.0,0.246,-0.087,-9.659,0.0,0.0,0.0,0.0,0.0,0.0,0.0,0.0,0.0
1581012843751085022,24521,1581012843747910022,,0.00695757738107,0.0121045379439,-0.174577561911,0.984544436354,0.0,0.0,0.0,0.0,0.0,0.0,0.0,0.0,0.0,0.002509,-0.001658,-0.051234,0.0,0.0,0.0,0.0,0.0,0.0,0.0,0.0,0.0,0.242,-0.079,-9.682,0.0,0.0,0.0,0.0,0.0,0.0,0.0,0.0,0.0
1581012843774670809,24522,1581012843773005962,,0.00696244223033,0.0120827997014,-0.175221866009,0.984430204749,0.0,0.0,0.0,0.0,0.0,0.0,0.0,0.0,0.0,0.001788,-0.001746,-0.053272,0.0,0.0,0.0,0.0,0.0,0.0,0.0,0.0,0.0,0.261,-0.069,-9.669,0.0,0.0,0.0,0.0,0.0,0.0,0.0,0.0,0.0
1581012843799421787,24523,1581012843798016071,,0.00698057779996,0.012085234529,-0.175874852303,0.984313595846,0.0,0.0,0.0,0.0,0.0,0.0,0.0,0.0,0.0,0.001261,-0.000377,-0.050987,0.0,0.0,0.0,0.0,0.0,0.0,0.0,0.0,0.0,0.279,-0.091,-9.677,0.0,0.0,0.0,0.0,0.0,0.0,0.0,0.0,0.0
1581012843824574678,24524,1581012843823213100,,0.00699861416929,0.0120877116851,-0.176519172377,0.984198094089,0.0,0.0,0.0,0.0,0.0,0.0,0.0,0.0,0.0,0.001498,0.000745,-0.051556,0.0,0.0,0.0,0.0,0.0,0.0,0.0,0.0,0.0,0.294,-0.094,-9.65,0.0,0.0,0.0,0.0,0.0,0.0,0.0,0.0,0.0
1581012843850276001,24525,1581012843847965955,,0.00700487371931,0.0120746017116,-0.177154682372,0.984084017882,0.0,0.0,0.0,0.0,0.0,0.0,0.0,0.0,0.0,0.001834,-0.00063,-0.052146,0.0,0.0,0.0,0.0,0.0,0.0,0.0,0.0,0.0,0.287,-0.096,-9.692,0.0,0.0,0.0,0.0,0.0,0.0,0.0,0.0,0.0
1581012843874387656,24526,1581012843872984886,,0.00700967399669,0.0120528405785,-0.177798684876,0.983968099666,0.0,0.0,0.0,0.0,0.0,0.0,0.0,0.0,0.0,0.001508,-0.00143,-0.050891,0.0,0.0,0.0,0.0,0.0,0.0,0.0,0.0,0.0,0.267,-0.106,-9.708,0.0,0.0,0.0,0.0,0.0,0.0,0.0,0.0,0.0
1581012843899562298,24527,1581012843897828102,,0.00703473250778,0.0120451357628,-0.178442862619,0.983851397328,0.0,0.0,0.0,0.0,0.0,0.0,0.0,0.0,0.0,0.001551,-0.00056,-0.051482,0.0,0.0,0.0,0.0,0.0,0.0,0.0,0.0,0.0,0.262,-0.107,-9.682,0.0,0.0,0.0,0.0,0.0,0.0,0.0,0.0,0.0
1581012843924172596,24528,1581012843922897100,,0.0070425094497,0.0120405904195,-0.179078168878,0.983735958819,0.0,0.0,0.0,0.0,0.0,0.0,0.0,0.0,0.0,0.000723,0.000904,-0.052112,0.0,0.0,0.0,0.0,0.0,0.0,0.0,0.0,0.0,0.237,-0.107,-9.665,0.0,0.0,0.0,0.0,0.0,0.0,0.0,0.0,0.0
1581012843949177745,24529,1581012843947936058,,0.00704180479741,0.012037546899,-0.179721879115,0.983618603229,0.0,0.0,0.0,0.0,0.0,0.0,0.0,0.0,0.0,0.000382,-0.000595,-0.052839,0.0,0.0,0.0,0.0,0.0,0.0,0.0,0.0,0.0,0.267,-0.113,-9.704,0.0,0.0,0.0,0.0,0.0,0.0,0.0,0.0,0.0
1581012843974361350,24530,1581012843973100900,,0.00704267209669,0.0120430923167,-0.18036553262,0.983500706324,0.0,0.0,0.0,0.0,0.0,0.0,0.0,0.0,0.0,0.000712,-3.9e-05,-0.051923,0.0,0.0,0.0,0.0,0.0,0.0,0.0,0.0,0.0,0.238,-0.085,-9.676,0.0,0.0,0.0,0.0,0.0,0.0,0.0,0.0,0.0
1581012844000143375,24531,1581012843998155117,,0.00704176100241,0.0120401828259,-0.180991925297,0.983385667262,0.0,0.0,0.0,0.0,0.0,0.0,0.0,0.0,0.0,0.000783,0.000242,-0.050744,0.0,0.0,0.0,0.0,0.0,0.0,0.0,0.0,0.0,0.261,-0.081,-9.627,0.0,0.0,0.0,0.0,0.0,0.0,0.0,0.0,0.0
1581012844024078125,24532,1581012844022886037,,0.00704095410703,0.0120372179384,-0.181626825232,0.98326864422,0.0,0.0,0.0,0.0,0.0,0.0,0.0,0.0,0.0,0.001303,-0.00022,-0.05155,0.0,0.0,0.0,0.0,0.0,0.0,0.0,0.0,0.0,0.274,-0.067,-9.633,0.0,0.0,0.0,0.0,0.0,0.0,0.0,0.0,0.0
1581012844049075861,24533,1581012844047812938,,0.00704025134044,0.0120341976752,-0.182270229096,0.983149620624,0.0,0.0,0.0,0.0,0.0,0.0,0.0,0.0,0.0,0.000476,-0.000383,-0.05206,0.0,0.0,0.0,0.0,0.0,0.0,0.0,0.0,0.0,0.269,-0.102,-9.654,0.0,0.0,0.0,0.0,0.0,0.0,0.0,0.0,0.0
1581012844074287654,24534,1581012844073093891,,0.00705680971548,0.0120279294591,-0.182922343452,0.983028456666,0.0,0.0,0.0,0.0,0.0,0.0,0.0,0.0,0.0,0.002979,-0.001143,-0.052549,0.0,0.0,0.0,0.0,0.0,0.0,0.0,0.0,0.0,0.27,-0.12,-9.697,0.0,0.0,0.0,0.0,0.0,0.0,0.0,0.0,0.0
1581012844099700692,24535,1581012844097861051,,0.00706628131121,0.0120318859057,-0.183565714481,0.982908403595,0.0,0.0,0.0,0.0,0.0,0.0,0.0,0.0,0.0,0.001695,-0.000958,-0.051643,0.0,0.0,0.0,0.0,0.0,0.0,0.0,0.0,0.0,0.264,-0.073,-9.659,0.0,0.0,0.0,0.0,0.0,0.0,0.0,0.0,0.0
1581012844124436106,24536,1581012844122917890,,0.00707254818801,0.0120186818147,-0.184208967609,0.982788169751,0.0,0.0,0.0,0.0,0.0,0.0,0.0,0.0,0.0,0.001073,-0.000943,-0.052219,0.0,0.0,0.0,0.0,0.0,0.0,0.0,0.0,0.0,0.244,-0.093,-9.659,0.0,0.0,0.0,0.0,0.0,0.0,0.0,0.0,0.0
1581012844149267949,24537,1581012844147820949,,0.00707869604001,0.0120055364509,-0.184843566572,0.982669127964,0.0,0.0,0.0,0.0,0.0,0.0,0.0,0.0,0.0,0.000291,8.7e-05,-0.050876,0.0,0.0,0.0,0.0,0.0,0.0,0.0,0.0,0.0,0.254,-0.106,-9.647,0.0,0.0,0.0,0.0,0.0,0.0,0.0,0.0,0.0
1581012844175105239,24538,1581012844173317909,,0.00708655212854,0.0120009008841,-0.185486682376,0.982547937669,0.0,0.0,0.0,0.0,0.0,0.0,0.0,0.0,0.0,0.001105,0.000531,-0.052938,0.0,0.0,0.0,0.0,0.0,0.0,0.0,0.0,0.0,0.273,-0.093,-9.655,0.0,0.0,0.0,0.0,0.0,0.0,0.0,0.0,0.0
1581012844199127391,24539,1581012844197702884,,0.00711307024131,0.0120016471599,-0.186121374261,0.982427706623,0.0,0.0,0.0,0.0,0.0,0.0,0.0,0.0,0.0,0.001394,-0.001026,-0.052315,0.0,0.0,0.0,0.0,0.0,0.0,0.0,0.0,0.0,0.254,-0.094,-9.655,0.0,0.0,0.0,0.0,0.0,0.0,0.0,0.0,0.0
1581012844224258782,24540,1581012844222799062,,0.00712102847015,0.0119969269539,-0.186772904008,0.982304050193,0.0,0.0,0.0,0.0,0.0,0.0,0.0,0.0,0.0,0.002546,-0.001564,-0.051467,0.0,0.0,0.0,0.0,0.0,0.0,0.0,0.0,0.0,0.267,-0.112,-9.64,0.0,0.0,0.0,0.0,0.0,0.0,0.0,0.0,0.0
1581012844250222726,24541,1581012844247911930,,0.0071374500658,0.0119906281707,-0.187415885101,0.982181534979,0.0,0.0,0.0,0.0,0.0,0.0,0.0,0.0,0.0,0.001889,-0.000962,-0.052008,0.0,0.0,0.0,0.0,0.0,0.0,0.0,0.0,0.0,0.257,-0.102,-9.649,0.0,0.0,0.0,0.0,0.0,0.0,0.0,0.0,0.0
1581012844274156901,24542,1581012844272833108,,0.00714683176211,0.0119945868042,-0.188050130449,0.982060182026,0.0,0.0,0.0,0.0,0.0,0.0,0.0,0.0,0.0,0.000641,0.000462,-0.05193,0.0,0.0,0.0,0.0,0.0,0.0,0.0,0.0,0.0,0.268,-0.118,-9.684,0.0,0.0,0.0,0.0,0.0,0.0,0.0,0.0,0.0
1581012844299046458,24543,1581012844297713041,,0.00714796667855,0.0119999977681,-0.188709899517,0.981933541769,0.0,0.0,0.0,0.0,0.0,0.0,0.0,0.0,0.0,-0.000771,-0.001756,-0.052697,0.0,0.0,0.0,0.0,0.0,0.0,0.0,0.0,0.0,0.27,-0.103,-9.637,0.0,0.0,0.0,0.0,0.0,0.0,0.0,0.0,0.0
1581012844324414994,24544,1581012844323225021,,0.00714549525765,0.0119884635198,-0.189343841464,0.981811656245,0.0,0.0,0.0,0.0,0.0,0.0,0.0,0.0,0.0,0.000914,3e-06,-0.051066,0.0,0.0,0.0,0.0,0.0,0.0,0.0,0.0,0.0,0.265,-0.081,-9.658,0.0,0.0,0.0,0.0,0.0,0.0,0.0,0.0,0.0
1581012844349566686,24545,1581012844347824096,,0.00715323557915,0.0119838466609,-0.189977828244,0.981689178618,0.0,0.0,0.0,0.0,0.0,0.0,0.0,0.0,0.0,0.000906,-0.000462,-0.052477,0.0,0.0,0.0,0.0,0.0,0.0,0.0,0.0,0.0,0.251,-0.09,-9.667,0.0,0.0,0.0,0.0,0.0,0.0,0.0,0.0,0.0
1581012844374349064,24546,1581012844373161077,,0.00716107745578,0.0119791623127,-0.190620301572,0.981564628167,0.0,0.0,0.0,0.0,0.0,0.0,0.0,0.0,0.0,0.002645,-0.000608,-0.051155,0.0,0.0,0.0,0.0,0.0,0.0,0.0,0.0,0.0,0.225,-0.093,-9.705,0.0,0.0,0.0,0.0,0.0,0.0,0.0,0.0,0.0
1581012844399714313,24547,1581012844398158073,,0.00715691119332,0.0119590745993,-0.191253986657,0.981441629311,0.0,0.0,0.0,0.0,0.0,0.0,0.0,0.0,0.0,0.000531,-0.000694,-0.051963,0.0,0.0,0.0,0.0,0.0,0.0,0.0,0.0,0.0,0.264,-0.069,-9.708,0.0,0.0,0.0,0.0,0.0,0.0,0.0,0.0,0.0
1581012844424460028,24548,1581012844423141956,,0.00715784680391,0.0119646262688,-0.191896211916,0.981316185946,0.0,0.0,0.0,0.0,0.0,0.0,0.0,0.0,0.0,0.000672,-0.00123,-0.052214,0.0,0.0,0.0,0.0,0.0,0.0,0.0,0.0,0.0,0.246,-0.082,-9.709,0.0,0.0,0.0,0.0,0.0,0.0,0.0,0.0,0.0
1581012844449616569,24549,1581012844447957038,,0.00716567609984,0.0119599389068,-0.192538440711,0.981190379996,0.0,0.0,0.0,0.0,0.0,0.0,0.0,0.0,0.0,0.002481,-0.000135,-0.052473,0.0,0.0,0.0,0.0,0.0,0.0,0.0,0.0,0.0,0.259,-0.106,-9.69,0.0,0.0,0.0,0.0,0.0,0.0,0.0,0.0,0.0
1581012844474675557,24550,1581012844473202943,,0.007181959411,0.0119536232772,-0.193172129944,0.981065776879,0.0,0.0,0.0,0.0,0.0,0.0,0.0,0.0,0.0,0.002205,-0.002059,-0.053338,0.0,0.0,0.0,0.0,0.0,0.0,0.0,0.0,0.0,0.258,-0.102,-9.679,0.0,0.0,0.0,0.0,0.0,0.0,0.0,0.0,0.0
1581012844500351779,24551,1581012844498548030,,0.00719834180889,0.0119472287874,-0.19381429884,0.980939073116,0.0,0.0,0.0,0.0,0.0,0.0,0.0,0.0,0.0,0.002327,0.000261,-0.051963,0.0,0.0,0.0,0.0,0.0,0.0,0.0,0.0,0.0,0.241,-0.082,-9.676,0.0,0.0,0.0,0.0,0.0,0.0,0.0,0.0,0.0
1581012844524455147,24552,1581012844523241996,,0.00720795988695,0.0119510114346,-0.19446485797,0.98081019451,0.0,0.0,0.0,0.0,0.0,0.0,0.0,0.0,0.0,0.001954,0.000755,-0.052784,0.0,0.0,0.0,0.0,0.0,0.0,0.0,0.0,0.0,0.249,-0.1,-9.667,0.0,0.0,0.0,0.0,0.0,0.0,0.0,0.0,0.0
1581012844549557924,24553,1581012844548044919,,0.00721758614754,0.0119547865744,-0.195115331386,0.980680884379,0.0,0.0,0.0,0.0,0.0,0.0,0.0,0.0,0.0,0.001414,-0.000892,-0.053194,0.0,0.0,0.0,0.0,0.0,0.0,0.0,0.0,0.0,0.263,-0.098,-9.734,0.0,0.0,0.0,0.0,0.0,0.0,0.0,0.0,0.0
1581012844574284676,24554,1581012844573084115,,0.00723236288789,0.0119397315453,-0.195765786622,0.9805513207,0.0,0.0,0.0,0.0,0.0,0.0,0.0,0.0,0.0,0.000338,-0.001482,-0.051466,0.0,0.0,0.0,0.0,0.0,0.0,0.0,0.0,0.0,0.262,-0.091,-9.671,0.0,0.0,0.0,0.0,0.0,0.0,0.0,0.0,0.0
1581012844599659487,24555,1581012844598033905,,0.0072521574967,0.0119503934734,-0.196407654654,0.980422677982,0.0,0.0,0.0,0.0,0.0,0.0,0.0,0.0,0.0,0.001615,-9.3e-05,-0.05181,0.0,0.0,0.0,0.0,0.0,0.0,0.0,0.0,0.0,0.262,-0.067,-9.656,0.0,0.0,0.0,0.0,0.0,0.0,0.0,0.0,0.0
1581012844624994848,24556,1581012844623291015,,0.00724960008313,0.0119388723382,-0.197040620641,0.980295822925,0.0,0.0,0.0,0.0,0.0,0.0,0.0,0.0,0.0,0.00117,-0.001142,-0.051575,0.0,0.0,0.0,0.0,0.0,0.0,0.0,0.0,0.0,0.239,-0.08,-9.637,0.0,0.0,0.0,0.0,0.0,0.0,0.0,0.0,0.0
1581012844649364387,24557,1581012844648041009,,0.00724692672876,0.0119274227321,-0.197664951224,0.980170284031,0.0,0.0,0.0,0.0,0.0,0.0,0.0,0.0,0.0,0.001386,-0.000341,-0.051246,0.0,0.0,0.0,0.0,0.0,0.0,0.0,0.0,0.0,0.256,-0.058,-9.694,0.0,0.0,0.0,0.0,0.0,0.0,0.0,0.0,0.0
1581012844674552892,24558,1581012844673109054,,0.00726328412421,0.0119209465248,-0.198306532829,0.980040639349,0.0,0.0,0.0,0.0,0.0,0.0,0.0,0.0,0.0,0.001282,-0.000952,-0.053052,0.0,0.0,0.0,0.0,0.0,0.0,0.0,0.0,0.0,0.258,-0.109,-9.657,0.0,0.0,0.0,0.0,0.0,0.0,0.0,0.0,0.0
1581012844700196025,24559,1581012844698303937,,0.00727302801435,0.0119246147768,-0.198965045925,0.979907045146,0.0,0.0,0.0,0.0,0.0,0.0,0.0,0.0,0.0,0.00217,-0.001379,-0.052023,0.0,0.0,0.0,0.0,0.0,0.0,0.0,0.0,0.0,0.253,-0.101,-9.673,0.0,0.0,0.0,0.0,0.0,0.0,0.0,0.0,0.0
1581012844724641467,24560,1581012844723176002,,0.0072843127486,0.0119369527985,-0.199606386483,0.979776371638,0.0,0.0,0.0,0.0,0.0,0.0,0.0,0.0,0.0,0.000912,0.001004,-0.052575,0.0,0.0,0.0,0.0,0.0,0.0,0.0,0.0,0.0,0.277,-0.089,-9.69,0.0,0.0,0.0,0.0,0.0,0.0,0.0,0.0,0.0
1581012844749196351,24561,1581012844747926950,,0.00729222803285,0.0119321190344,-0.200256154833,0.979643772193,0.0,0.0,0.0,0.0,0.0,0.0,0.0,0.0,0.0,0.00087,-0.001614,-0.052731,0.0,0.0,0.0,0.0,0.0,0.0,0.0,0.0,0.0,0.271,-0.116,-9.708,0.0,0.0,0.0,0.0,0.0,0.0,0.0,0.0,0.0
1581012844774946437,24562,1581012844773266077,,0.00730858388284,0.0119255905669,-0.200897391323,0.97951243129,0.0,0.0,0.0,0.0,0.0,0.0,0.0,0.0,0.0,0.001261,-0.001289,-0.050755,0.0,0.0,0.0,0.0,0.0,0.0,0.0,0.0,0.0,0.238,-0.081,-9.667,0.0,0.0,0.0,0.0,0.0,0.0,0.0,0.0,0.0
1581012844799923985,24563,1581012844798019886,,0.00731628356875,0.0119208684031,-0.201529890918,0.979382493185,0.0,0.0,0.0,0.0,0.0,0.0,0.0,0.0,0.0,0.001505,0.000133,-0.052496,0.0,0.0,0.0,0.0,0.0,0.0,0.0,0.0,0.0,0.254,-0.078,-9.675,0.0,0.0,0.0,0.0,0.0,0.0,0.0,0.0,0.0
1581012844824323926,24564,1581012844823035955,,0.00731553861932,0.0119178416268,-0.202170748056,0.979250446299,0.0,0.0,0.0,0.0,0.0,0.0,0.0,0.0,0.0,0.00145,0.000376,-0.050921,0.0,0.0,0.0,0.0,0.0,0.0,0.0,0.0,0.0,0.251,-0.084,-9.656,0.0,0.0,0.0,0.0,0.0,0.0,0.0,0.0,0.0
1581012844849554582,24565,1581012844848087072,,0.00733000900958,0.0119028005295,-0.202803164705,0.979119742776,0.0,0.0,0.0,0.0,0.0,0.0,0.0,0.0,0.0,0.001517,-0.00082,-0.052989,0.0,0.0,0.0,0.0,0.0,0.0,0.0,0.0,0.0,0.252,-0.107,-9.658,0.0,0.0,0.0,0.0,0.0,0.0,0.0,0.0,0.0
1581012844874459465,24566,1581012844872977018,,0.00732925453202,0.0118997758837,-0.203443849758,0.978986862709,0.0,0.0,0.0,0.0,0.0,0.0,0.0,0.0,0.0,0.00087,-0.000404,-0.051085,0.0,0.0,0.0,0.0,0.0,0.0,0.0,0.0,0.0,0.269,-0.098,-9.694,0.0,0.0,0.0,0.0,0.0,0.0,0.0,0.0,0.0
1581012844900157850,24567,1581012844898292064,,0.00733892512975,0.0119034546361,-0.20409311086,0.97885159756,0.0,0.0,0.0,0.0,0.0,0.0,0.0,0.0,0.0,0.00166,-0.001244,-0.050865,0.0,0.0,0.0,0.0,0.0,0.0,0.0,0.0,0.0,0.255,-0.115,-9.67,0.0,0.0,0.0,0.0,0.0,0.0,0.0,0.0,0.0
1581012844924338183,24568,1581012844923038959,,0.00733995899683,0.0119089765572,-0.204733637179,0.978717752514,0.0,0.0,0.0,0.0,0.0,0.0,0.0,0.0,0.0,0.001258,-3e-05,-0.051646,0.0,0.0,0.0,0.0,0.0,0.0,0.0,0.0,0.0,0.252,-0.082,-9.628,0.0,0.0,0.0,0.0,0.0,0.0,0.0,0.0,0.0
1581012844950724892,24569,1581012844948182106,,0.00734764794734,0.0119042341357,-0.205365622793,0.978585337236,0.0,0.0,0.0,0.0,0.0,0.0,0.0,0.0,0.0,0.00207,0.000395,-0.053017,0.0,0.0,0.0,0.0,0.0,0.0,0.0,0.0,0.0,0.255,-0.099,-9.679,0.0,0.0,0.0,0.0,0.0,0.0,0.0,0.0,0.0
1581012844974751507,24570,1581012844973107099,,0.00735343346451,0.0118910120871,-0.205988967255,0.978454432366,0.0,0.0,0.0,0.0,0.0,0.0,0.0,0.0,0.0,0.001518,-5e-05,-0.051513,0.0,0.0,0.0,0.0,0.0,0.0,0.0,0.0,0.0,0.242,-0.094,-9.672,0.0,0.0,0.0,0.0,0.0,0.0,0.0,0.0,0.0
1581012844999369592,24571,1581012844997927904,,0.00735077130618,0.0118795263852,-0.206620662071,0.978321391476,0.0,0.0,0.0,0.0,0.0,0.0,0.0,0.0,0.0,0.000404,-0.001494,-0.051773,0.0,0.0,0.0,0.0,0.0,0.0,0.0,0.0,0.0,0.239,-0.103,-9.679,0.0,0.0,0.0,0.0,0.0,0.0,0.0,0.0,0.0
1581012845024416180,24572,1581012845022845029,,0.00737360275791,0.0118626875724,-0.207244045405,0.978189558455,0.0,0.0,0.0,0.0,0.0,0.0,0.0,0.0,0.0,0.000992,-0.001695,-0.051665,0.0,0.0,0.0,0.0,0.0,0.0,0.0,0.0,0.0,0.28,-0.1,-9.636,0.0,0.0,0.0,0.0,0.0,0.0,0.0,0.0,0.0
1581012845051162726,24573,1581012845048777103,,0.00737303714912,0.0118595444699,-0.20790119128,0.978050144007,0.0,0.0,0.0,0.0,0.0,0.0,0.0,0.0,0.0,0.000663,-0.000815,-0.050821,0.0,0.0,0.0,0.0,0.0,0.0,0.0,0.0,0.0,0.272,-0.109,-9.624,0.0,0.0,0.0,0.0,0.0,0.0,0.0,0.0,0.0
1581012845073992638,24574,1581012845072846889,,0.00739307271608,0.0118699001743,-0.208549949722,0.977911737539,0.0,0.0,0.0,0.0,0.0,0.0,0.0,0.0,0.0,0.002156,-0.000962,-0.052795,0.0,0.0,0.0,0.0,0.0,0.0,0.0,0.0,0.0,0.265,-0.105,-9.614,0.0,0.0,0.0,0.0,0.0,0.0,0.0,0.0,0.0
1581012845099499754,24575,1581012845097903013,,0.00741322892446,0.0118801698151,-0.209207148913,0.977771074662,0.0,0.0,0.0,0.0,0.0,0.0,0.0,0.0,0.0,0.00155,0.000633,-0.052867,0.0,0.0,0.0,0.0,0.0,0.0,0.0,0.0,0.0,0.266,-0.086,-9.705,0.0,0.0,0.0,0.0,0.0,0.0,0.0,0.0,0.0
1581012845124898703,24576,1581012845123228073,,0.00741267871741,0.0118770172107,-0.209864012991,0.977630341544,0.0,0.0,0.0,0.0,0.0,0.0,0.0,0.0,0.0,-0.000391,-0.000918,-0.05215,0.0,0.0,0.0,0.0,0.0,0.0,0.0,0.0,0.0,0.262,-0.105,-9.69,0.0,0.0,0.0,0.0,0.0,0.0,0.0,0.0,0.0
1581012845148897480,24577,1581012845147774934,,0.00743102409869,0.0118787268565,-0.210521006039,0.977488916431,0.0,0.0,0.0,0.0,0.0,0.0,0.0,0.0,0.0,0.001328,-0.000455,-0.051728,0.0,0.0,0.0,0.0,0.0,0.0,0.0,0.0,0.0,0.258,-0.101,-9.688,0.0,0.0,0.0,0.0,0.0,0.0,0.0,0.0,0.0
1581012845174079098,24578,1581012845172874927,,0.00743695546093,0.0118653314912,-0.211160709531,0.977351042539,0.0,0.0,0.0,0.0,0.0,0.0,0.0,0.0,0.0,7.3e-05,-0.000992,-0.052517,0.0,0.0,0.0,0.0,0.0,0.0,0.0,0.0,0.0,0.266,-0.112,-9.661,0.0,0.0,0.0,0.0,0.0,0.0,0.0,0.0,0.0
1581012845199683330,24579,1581012845197818040,,0.00743639895481,0.0118621799925,-0.211817291057,0.977208997025,0.0,0.0,0.0,0.0,0.0,0.0,0.0,0.0,0.0,0.001465,9.8e-05,-0.052264,0.0,0.0,0.0,0.0,0.0,0.0,0.0,0.0,0.0,0.253,-0.103,-9.675,0.0,0.0,0.0,0.0,0.0,0.0,0.0,0.0,0.0
1581012845225239710,24580,1581012845222929000,,0.00745268768547,0.0118554563044,-0.212456930902,0.977070088639,0.0,0.0,0.0,0.0,0.0,0.0,0.0,0.0,0.0,0.001625,8.2e-05,-0.051313,0.0,0.0,0.0,0.0,0.0,0.0,0.0,0.0,0.0,0.264,-0.096,-9.65,0.0,0.0,0.0,0.0,0.0,0.0,0.0,0.0,0.0
1581012845249434243,24581,1581012845247874975,,0.00745202356837,0.0118523705784,-0.213104798128,0.976929032055,0.0,0.0,0.0,0.0,0.0,0.0,0.0,0.0,0.0,0.000318,-0.001546,-0.052726,0.0,0.0,0.0,0.0,0.0,0.0,0.0,0.0,0.0,0.239,-0.09,-9.644,0.0,0.0,0.0,0.0,0.0,0.0,0.0,0.0,0.0
1581012845275338698,24582,1581012845272933959,,0.00746840679722,0.0118455602584,-0.213752778462,0.976787415614,0.0,0.0,0.0,0.0,0.0,0.0,0.0,0.0,0.0,0.001734,-0.001124,-0.053402,0.0,0.0,0.0,0.0,0.0,0.0,0.0,0.0,0.0,0.27,-0.097,-9.678,0.0,0.0,0.0,0.0,0.0,0.0,0.0,0.0,0.0
1581012845298930748,24583,1581012845297718048,,0.00748675757955,0.0118471911598,-0.214409203543,0.976643377062,0.0,0.0,0.0,0.0,0.0,0.0,0.0,0.0,0.0,0.00199,6.7e-05,-0.052213,0.0,0.0,0.0,0.0,0.0,0.0,0.0,0.0,0.0,0.276,-0.09,-9.695,0.0,0.0,0.0,0.0,0.0,0.0,0.0,0.0,0.0
1581012845324175417,24584,1581012845322818994,,0.00749659235709,0.0118506795432,-0.215065428272,0.976498962652,0.0,0.0,0.0,0.0,0.0,0.0,0.0,0.0,0.0,0.000289,-0.001612,-0.052114,0.0,0.0,0.0,0.0,0.0,0.0,0.0,0.0,0.0,0.237,-0.097,-9.671,0.0,0.0,0.0,0.0,0.0,0.0,0.0,0.0,0.0
1581012845349627219,24585,1581012845348040103,,0.00750445037607,0.0118457050089,-0.215713019562,0.976356111103,0.0,0.0,0.0,0.0,0.0,0.0,0.0,0.0,0.0,0.000703,-0.002576,-0.052135,0.0,0.0,0.0,0.0,0.0,0.0,0.0,0.0,0.0,0.224,-0.085,-9.684,0.0,0.0,0.0,0.0,0.0,0.0,0.0,0.0,0.0
1581012845375774045,24586,1581012845373936891,,0.0075081183055,0.0118239487489,-0.216326407986,0.976220624451,0.0,0.0,0.0,0.0,0.0,0.0,0.0,0.0,0.0,0.001702,-0.000539,-0.050412,0.0,0.0,0.0,0.0,0.0,0.0,0.0,0.0,0.0,0.256,-0.09,-9.654,0.0,0.0,0.0,0.0,0.0,0.0,0.0,0.0,0.0
1581012845398967069,24587,1581012845397691965,,0.0075366758529,0.0118322816671,-0.21696553449,0.976078456104,0.0,0.0,0.0,0.0,0.0,0.0,0.0,0.0,0.0,0.002062,-0.000415,-0.052828,0.0,0.0,0.0,0.0,0.0,0.0,0.0,0.0,0.0,0.244,-0.088,-9.646,0.0,0.0,0.0,0.0,0.0,0.0,0.0,0.0,0.0
1581012845424585438,24588,1581012845423207044,,0.00755093409686,0.0118169964382,-0.217595900523,0.975938197872,0.0,0.0,0.0,0.0,0.0,0.0,0.0,0.0,0.0,0.002109,-0.000462,-0.051704,0.0,0.0,0.0,0.0,0.0,0.0,0.0,0.0,0.0,0.254,-0.088,-9.664,0.0,0.0,0.0,0.0,0.0,0.0,0.0,0.0,0.0
1581012845449620451,24589,1581012845447752952,,0.00755856360522,0.011812117794,-0.218226088498,0.975797477087,0.0,0.0,0.0,0.0,0.0,0.0,0.0,0.0,0.0,0.000759,-0.000441,-0.052869,0.0,0.0,0.0,0.0,0.0,0.0,0.0,0.0,0.0,0.219,-0.119,-9.682,0.0,0.0,0.0,0.0,0.0,0.0,0.0,0.0,0.0
1581012845475127879,24590,1581012845473234891,,0.00756608692365,0.011807300251,-0.218847671251,0.975658259216,0.0,0.0,0.0,0.0,0.0,0.0,0.0,0.0,0.0,0.000442,-0.00074,-0.053175,0.0,0.0,0.0,0.0,0.0,0.0,0.0,0.0,0.0,0.263,-0.104,-9.696,0.0,0.0,0.0,0.0,0.0,0.0,0.0,0.0,0.0
1581012845500378136,24591,1581012845498723030,,0.00757764176422,0.0118193721582,-0.219486222389,0.975514571889,0.0,0.0,0.0,0.0,0.0,0.0,0.0,0.0,0.0,-0.000476,0.001209,-0.051753,0.0,0.0,0.0,0.0,0.0,0.0,0.0,0.0,0.0,0.247,-0.134,-9.674,0.0,0.0,0.0,0.0,0.0,0.0,0.0,0.0,0.0
1581012845524840242,24592,1581012845523201942,,0.00758153615698,0.0117973861535,-0.220124617067,0.975370952485,0.0,0.0,0.0,0.0,0.0,0.0,0.0,0.0,0.0,0.001982,-0.00141,-0.05293,0.0,0.0,0.0,0.0,0.0,0.0,0.0,0.0,0.0,0.266,-0.099,-9.649,0.0,0.0,0.0,0.0,0.0,0.0,0.0,0.0,0.0
1581012845550099649,24593,1581012845548062086,,0.00758469940673,0.0118113032565,-0.220771386954,0.975224569088,0.0,0.0,0.0,0.0,0.0,0.0,0.0,0.0,0.0,0.003065,-0.001982,-0.051319,0.0,0.0,0.0,0.0,0.0,0.0,0.0,0.0,0.0,0.284,-0.098,-9.673,0.0,0.0,0.0,0.0,0.0,0.0,0.0,0.0,0.0
1581012845574721635,24594,1581012845573121070,,0.0075840221305,0.0118082025333,-0.221418028742,0.975077999705,0.0,0.0,0.0,0.0,0.0,0.0,0.0,0.0,0.0,0.000162,-0.000825,-0.051842,0.0,0.0,0.0,0.0,0.0,0.0,0.0,0.0,0.0,0.27,-0.088,-9.67,0.0,0.0,0.0,0.0,0.0,0.0,0.0,0.0,0.0
1581012845599649381,24595,1581012845598016977,,0.00757483620248,0.0118070457807,-0.222064470178,0.97493106762,0.0,0.0,0.0,0.0,0.0,0.0,0.0,0.0,0.0,0.000657,-0.000744,-0.051545,0.0,0.0,0.0,0.0,0.0,0.0,0.0,0.0,0.0,0.256,-0.071,-9.692,0.0,0.0,0.0,0.0,0.0,0.0,0.0,0.0,0.0
1581012845625254138,24596,1581012845623332977,,0.00757620420785,0.0118124036035,-0.222719438455,0.974781575526,0.0,0.0,0.0,0.0,0.0,0.0,0.0,0.0,0.0,0.001131,-0.000346,-0.05174,0.0,0.0,0.0,0.0,0.0,0.0,0.0,0.0,0.0,0.254,-0.096,-9.664,0.0,0.0,0.0,0.0,0.0,0.0,0.0,0.0,0.0
1581012845649468472,24597,1581012845648021936,,0.00756712932898,0.0118112087102,-0.223374188211,0.974631830972,0.0,0.0,0.0,0.0,0.0,0.0,0.0,0.0,0.0,0.00177,-0.001144,-0.052118,0.0,0.0,0.0,0.0,0.0,0.0,0.0,0.0,0.0,0.276,-0.06,-9.687,0.0,0.0,0.0,0.0,0.0,0.0,0.0,0.0,0.0
1581012845674461932,24598,1581012845673068046,,0.00757269840509,0.011797881442,-0.223995012848,0.97448945528,0.0,0.0,0.0,0.0,0.0,0.0,0.0,0.0,0.0,0.001305,0.000129,-0.05173,0.0,0.0,0.0,0.0,0.0,0.0,0.0,0.0,0.0,0.27,-0.091,-9.679,0.0,0.0,0.0,0.0,0.0,0.0,0.0,0.0,0.0
1581012845699852332,24599,1581012845698052883,,0.00758892122121,0.0117909623047,-0.224632869588,0.974342575988,0.0,0.0,0.0,0.0,0.0,0.0,0.0,0.0,0.0,0.00179,0.000119,-0.051484,0.0,0.0,0.0,0.0,0.0,0.0,0.0,0.0,0.0,0.261,-0.092,-9.68,0.0,0.0,0.0,0.0,0.0,0.0,0.0,0.0,0.0
1581012845725085689,24600,1581012845723073959,,0.00761167488796,0.0117735594235,-0.225270718241,0.974195334216,0.0,0.0,0.0,0.0,0.0,0.0,0.0,0.0,0.0,0.003131,-0.000195,-0.051615,0.0,0.0,0.0,0.0,0.0,0.0,0.0,0.0,0.0,0.261,-0.07,-9.674,0.0,0.0,0.0,0.0,0.0,0.0,0.0,0.0,0.0
1581012845750019310,24601,1581012845748224020,,0.00763658470217,0.0117644989458,-0.225925484969,0.974043610102,0.0,0.0,0.0,0.0,0.0,0.0,0.0,0.0,0.0,0.002127,-0.000836,-0.051829,0.0,0.0,0.0,0.0,0.0,0.0,0.0,0.0,0.0,0.229,-0.091,-9.69,0.0,0.0,0.0,0.0,0.0,0.0,0.0,0.0,0.0
1581012845774247632,24602,1581012845773015975,,0.00764605358355,0.0117681308347,-0.226545963441,0.973899366162,0.0,0.0,0.0,0.0,0.0,0.0,0.0,0.0,0.0,0.001055,0.000309,-0.051503,0.0,0.0,0.0,0.0,0.0,0.0,0.0,0.0,0.0,0.254,-0.111,-9.706,0.0,0.0,0.0,0.0,0.0,0.0,0.0,0.0,0.0
1581012845799804350,24603,1581012845798130989,,0.00766027027285,0.0117526436051,-0.227183418594,0.973750938353,0.0,0.0,0.0,0.0,0.0,0.0,0.0,0.0,0.0,0.000957,-0.000948,-0.051443,0.0,0.0,0.0,0.0,0.0,0.0,0.0,0.0,0.0,0.271,-0.096,-9.679,0.0,0.0,0.0,0.0,0.0,0.0,0.0,0.0,0.0
1581012845824750572,24604,1581012845823457956,,0.00765086560412,0.0117516704392,-0.227811987028,0.973604160357,0.0,0.0,0.0,0.0,0.0,0.0,0.0,0.0,0.0,0.00113,0.00011,-0.052213,0.0,0.0,0.0,0.0,0.0,0.0,0.0,0.0,0.0,0.268,-0.134,-9.671,0.0,0.0,0.0,0.0,0.0,0.0,0.0,0.0,0.0
1581012845851161756,24605,1581012845847928047,,0.00765225814488,0.0117570157287,-0.228466062248,0.973450807143,0.0,0.0,0.0,0.0,0.0,0.0,0.0,0.0,0.0,0.000316,-0.001795,-0.052257,0.0,0.0,0.0,0.0,0.0,0.0,0.0,0.0,0.0,0.266,-0.072,-9.674,0.0,0.0,0.0,0.0,0.0,0.0,0.0,0.0,0.0
1581012845875394216,24606,1581012845873501062,,0.00766025911829,0.0117518042786,-0.229128616216,0.973295069728,0.0,0.0,0.0,0.0,0.0,0.0,0.0,0.0,0.0,0.001951,-0.000206,-0.052713,0.0,0.0,0.0,0.0,0.0,0.0,0.0,0.0,0.0,0.24,-0.097,-9.676,0.0,0.0,0.0,0.0,0.0,0.0,0.0,0.0,0.0
1581012845899821582,24607,1581012845898020982,,0.00765945672338,0.0117487932166,-0.229765484709,0.973144963825,0.0,0.0,0.0,0.0,0.0,0.0,0.0,0.0,0.0,0.000936,0.001134,-0.051101,0.0,0.0,0.0,0.0,0.0,0.0,0.0,0.0,0.0,0.276,-0.089,-9.687,0.0,0.0,0.0,0.0,0.0,0.0,0.0,0.0,0.0
1581012845925007537,24608,1581012845923319101,,0.00766956445017,0.0117520011163,-0.230436334958,0.972986209451,0.0,0.0,0.0,0.0,0.0,0.0,0.0,0.0,0.0,0.001226,-0.001312,-0.052075,0.0,0.0,0.0,0.0,0.0,0.0,0.0,0.0,0.0,0.272,-0.102,-9.683,0.0,0.0,0.0,0.0,0.0,0.0,0.0,0.0,0.0
1581012845950088551,24609,1581012845947958946,,0.00766876488489,0.0117489953741,-0.231073001021,0.972835247795,0.0,0.0,0.0,0.0,0.0,0.0,0.0,0.0,0.0,0.000497,-0.000497,-0.051011,0.0,0.0,0.0,0.0,0.0,0.0,0.0,0.0,0.0,0.298,-0.094,-9.633,0.0,0.0,0.0,0.0,0.0,0.0,0.0,0.0,0.0
1581012845974677086,24610,1581012845973088979,,0.00767008823539,0.0117544172979,-0.23171806995,0.972681725684,0.0,0.0,0.0,0.0,0.0,0.0,0.0,0.0,0.0,0.002127,0.000774,-0.052775,0.0,0.0,0.0,0.0,0.0,0.0,0.0,0.0,0.0,0.275,-0.031,-9.677,0.0,0.0,0.0,0.0,0.0,0.0,0.0,0.0,0.0
1581012845999508516,24611,1581012845997872114,,0.0076589843616,0.0117448292201,-0.232371394398,0.972526058268,0.0,0.0,0.0,0.0,0.0,0.0,0.0,0.0,0.0,0.001896,-0.000925,-0.052251,0.0,0.0,0.0,0.0,0.0,0.0,0.0,0.0,0.0,0.262,-0.057,-9.709,0.0,0.0,0.0,0.0,0.0,0.0,0.0,0.0,0.0
1581012846024284882,24612,1581012846022950887,,0.00764766624686,0.0117353948479,-0.233007643385,0.972374018489,0.0,0.0,0.0,0.0,0.0,0.0,0.0,0.0,0.0,0.000955,0.000874,-0.052725,0.0,0.0,0.0,0.0,0.0,0.0,0.0,0.0,0.0,0.259,-0.068,-9.699,0.0,0.0,0.0,0.0,0.0,0.0,0.0,0.0,0.0
1581012846049597616,24613,1581012846047863960,,0.00765310294359,0.0117220360376,-0.23362702922,0.972225506302,0.0,0.0,0.0,0.0,0.0,0.0,0.0,0.0,0.0,0.002829,-0.000318,-0.05121,0.0,0.0,0.0,0.0,0.0,0.0,0.0,0.0,0.0,0.257,-0.063,-9.67,0.0,0.0,0.0,0.0,0.0,0.0,0.0,0.0,0.0
1581012846074227365,24614,1581012846072860002,,0.00766915405732,0.0117150471762,-0.234254918542,0.972074366952,0.0,0.0,0.0,0.0,0.0,0.0,0.0,0.0,0.0,0.000713,0.000669,-0.051453,0.0,0.0,0.0,0.0,0.0,0.0,0.0,0.0,0.0,0.239,-0.096,-9.71,0.0,0.0,0.0,0.0,0.0,0.0,0.0,0.0,0.0
1581012846100588823,24615,1581012846098556041,,0.00767466902149,0.0117016103278,-0.234882594934,0.971923010515,0.0,0.0,0.0,0.0,0.0,0.0,0.0,0.0,0.0,0.001516,-0.001547,-0.053097,0.0,0.0,0.0,0.0,0.0,0.0,0.0,0.0,0.0,0.23,-0.069,-9.67,0.0,0.0,0.0,0.0,0.0,0.0,0.0,0.0,0.0
1581012846124299389,24616,1581012846122886896,,0.00770113664295,0.0117010891362,-0.235501923235,0.971772926748,0.0,0.0,0.0,0.0,0.0,0.0,0.0,0.0,0.0,0.00269,-0.000699,-0.052607,0.0,0.0,0.0,0.0,0.0,0.0,0.0,0.0,0.0,0.264,-0.119,-9.671,0.0,0.0,0.0,0.0,0.0,0.0,0.0,0.0,0.0
1581012846149378153,24617,1581012846147897958,,0.00772149377129,0.0117108766289,-0.236146503649,0.971616211638,0.0,0.0,0.0,0.0,0.0,0.0,0.0,0.0,0.0,0.001292,-9.4e-05,-0.052566,0.0,0.0,0.0,0.0,0.0,0.0,0.0,0.0,0.0,0.261,-0.12,-9.704,0.0,0.0,0.0,0.0,0.0,0.0,0.0,0.0,0.0
1581012846174548845,24618,1581012846173036098,,0.00773763446785,0.0117037540987,-0.236782476492,0.971461378532,0.0,0.0,0.0,0.0,0.0,0.0,0.0,0.0,0.0,0.001637,-0.00111,-0.052193,0.0,0.0,0.0,0.0,0.0,0.0,0.0,0.0,0.0,0.292,-0.124,-9.659,0.0,0.0,0.0,0.0,0.0,0.0,0.0,0.0,0.0
1581012846200246718,24619,1581012846198565006,,0.00775417742865,0.0116963447922,-0.237452252633,0.97129784102,0.0,0.0,0.0,0.0,0.0,0.0,0.0,0.0,0.0,0.001095,0.000644,-0.053434,0.0,0.0,0.0,0.0,0.0,0.0,0.0,0.0,0.0,0.247,-0.107,-9.644,0.0,0.0,0.0,0.0,0.0,0.0,0.0,0.0,0.0
1581012846224628807,24620,1581012846223018884,,0.00776390765131,0.0116997422652,-0.23808792755,0.971142099038,0.0,0.0,0.0,0.0,0.0,0.0,0.0,0.0,0.0,0.001475,0.000805,-0.053427,0.0,0.0,0.0,0.0,0.0,0.0,0.0,0.0,0.0,0.248,-0.094,-9.674,0.0,0.0,0.0,0.0,0.0,0.0,0.0,0.0,0.0
1581012846249308332,24621,1581012846247986078,,0.00775273838736,0.0116902157797,-0.23874021761,0.970982153491,0.0,0.0,0.0,0.0,0.0,0.0,0.0,0.0,0.0,0.000156,-0.002546,-0.052991,0.0,0.0,0.0,0.0,0.0,0.0,0.0,0.0,0.0,0.25,-0.111,-9.652,0.0,0.0,0.0,0.0,0.0,0.0,0.0,0.0,0.0
1581012846274646843,24622,1581012846273098945,,0.00774364786458,0.0116891818623,-0.239392412854,0.970821647685,0.0,0.0,0.0,0.0,0.0,0.0,0.0,0.0,0.0,-0.000508,-0.001108,-0.051061,0.0,0.0,0.0,0.0,0.0,0.0,0.0,0.0,0.0,0.259,-0.132,-9.669,0.0,0.0,0.0,0.0,0.0,0.0,0.0,0.0,0.0
1581012846300520609,24623,1581012846298542976,,0.00774502174587,0.0116946091114,-0.240036143741,0.970662608971,0.0,0.0,0.0,0.0,0.0,0.0,0.0,0.0,0.0,0.001774,0.000305,-0.052445,0.0,0.0,0.0,0.0,0.0,0.0,0.0,0.0,0.0,0.252,-0.078,-9.634,0.0,0.0,0.0,0.0,0.0,0.0,0.0,0.0,0.0
1581012846325260511,24624,1581012846323986053,,0.0077291613407,0.0117044426791,-0.240654156748,0.970509578998,0.0,0.0,0.0,0.0,0.0,0.0,0.0,0.0,0.0,-0.000365,0.000385,-0.052356,0.0,0.0,0.0,0.0,0.0,0.0,0.0,0.0,0.0,0.255,-0.089,-9.655,0.0,0.0,0.0,0.0,0.0,0.0,0.0,0.0,0.0
1581012846350498930,24625,1581012846348809957,,0.007719782255,0.0117036601076,-0.241280630035,0.970354103857,0.0,0.0,0.0,0.0,0.0,0.0,0.0,0.0,0.0,0.000871,0.000112,-0.052019,0.0,0.0,0.0,0.0,0.0,0.0,0.0,0.0,0.0,0.275,-0.05,-9.633,0.0,0.0,0.0,0.0,0.0,0.0,0.0,0.0,0.0
1581012846374802255,24626,1581012846373234987,,0.00772533056111,0.0116901381974,-0.241915661954,0.970196099991,0.0,0.0,0.0,0.0,0.0,0.0,0.0,0.0,0.0,0.002103,-0.000899,-0.05192,0.0,0.0,0.0,0.0,0.0,0.0,0.0,0.0,0.0,0.281,-0.051,-9.697,0.0,0.0,0.0,0.0,0.0,0.0,0.0,0.0,0.0
1581012846399866056,24627,1581012846398196935,,0.00772008000175,0.0116703999989,-0.24253354657,0.970042102652,0.0,0.0,0.0,0.0,0.0,0.0,0.0,0.0,0.0,0.00121,-0.000371,-0.051608,0.0,0.0,0.0,0.0,0.0,0.0,0.0,0.0,0.0,0.28,-0.066,-9.688,0.0,0.0,0.0,0.0,0.0,0.0,0.0,0.0,0.0
1581012846425126151,24628,1581012846423330068,,0.00773840329014,0.0116716192319,-0.243176962768,0.969880845876,0.0,0.0,0.0,0.0,0.0,0.0,0.0,0.0,0.0,0.002524,-0.002032,-0.052047,0.0,0.0,0.0,0.0,0.0,0.0,0.0,0.0,0.0,0.248,-0.078,-9.661,0.0,0.0,0.0,0.0,0.0,0.0,0.0,0.0,0.0
1581012846450416884,24629,1581012846448873996,,0.00774604068908,0.0116665519593,-0.243811696168,0.969721479205,0.0,0.0,0.0,0.0,0.0,0.0,0.0,0.0,0.0,0.001821,-5.8e-05,-0.050865,0.0,0.0,0.0,0.0,0.0,0.0,0.0,0.0,0.0,0.248,-0.092,-9.655,0.0,0.0,0.0,0.0,0.0,0.0,0.0,0.0,0.0
1581012846475805671,24630,1581012846473321914,,0.00776203404423,0.011659414229,-0.244437965851,0.969563762595,0.0,0.0,0.0,0.0,0.0,0.0,0.0,0.0,0.0,0.001627,-0.001189,-0.051607,0.0,0.0,0.0,0.0,0.0,0.0,0.0,0.0,0.0,0.245,-0.089,-9.678,0.0,0.0,0.0,0.0,0.0,0.0,0.0,0.0,0.0
1581012846499148125,24631,1581012846497744083,,0.00777384786075,0.0116352730175,-0.245072570282,0.969403746128,0.0,0.0,0.0,0.0,0.0,0.0,0.0,0.0,0.0,0.000295,-0.001652,-0.051155,0.0,0.0,0.0,0.0,0.0,0.0,0.0,0.0,0.0,0.27,-0.095,-9.761,0.0,0.0,0.0,0.0,0.0,0.0,0.0,0.0,0.0
1581012846524351793,24632,1581012846523202896,,0.00779206285652,0.0116364968622,-0.245707103932,0.969242949304,0.0,0.0,0.0,0.0,0.0,0.0,0.0,0.0,0.0,-1.1e-05,0.00018,-0.050664,0.0,0.0,0.0,0.0,0.0,0.0,0.0,0.0,0.0,0.249,-0.102,-9.688,0.0,0.0,0.0,0.0,0.0,0.0,0.0,0.0,0.0
1581012846549910924,24633,1581012846548080921,,0.00778907173303,0.0116250871089,-0.246341306494,0.969082116452,0.0,0.0,0.0,0.0,0.0,0.0,0.0,0.0,0.0,0.000308,-0.000336,-0.051914,0.0,0.0,0.0,0.0,0.0,0.0,0.0,0.0,0.0,0.263,-0.084,-9.697,0.0,0.0,0.0,0.0,0.0,0.0,0.0,0.0,0.0
1581012846574607787,24634,1581012846573163986,,0.00779667866591,0.0116199866839,-0.246975516448,0.968920678893,0.0,0.0,0.0,0.0,0.0,0.0,0.0,0.0,0.0,9e-06,-0.001586,-0.052433,0.0,0.0,0.0,0.0,0.0,0.0,0.0,0.0,0.0,0.27,-0.127,-9.701,0.0,0.0,0.0,0.0,0.0,0.0,0.0,0.0,0.0
1581012846599589872,24635,1581012846598130941,,0.00781067778433,0.0116041980356,-0.247618164748,0.968756718886,0.0,0.0,0.0,0.0,0.0,0.0,0.0,0.0,0.0,0.001197,-0.000304,-0.051073,0.0,0.0,0.0,0.0,0.0,0.0,0.0,0.0,0.0,0.258,-0.109,-9.636,0.0,0.0,0.0,0.0,0.0,0.0,0.0,0.0,0.0
1581012846624509431,24636,1581012846623279094,,0.00781827104072,0.0115990834739,-0.248252161456,0.968594445696,0.0,0.0,0.0,0.0,0.0,0.0,0.0,0.0,0.0,0.001561,-0.000445,-0.052591,0.0,0.0,0.0,0.0,0.0,0.0,0.0,0.0,0.0,0.256,-0.081,-9.674,0.0,0.0,0.0,0.0,0.0,0.0,0.0,0.0,0.0
1581012846649862217,24637,1581012846648196935,,0.00781730859066,0.0115962041029,-0.248877499464,0.96843399775,0.0,0.0,0.0,0.0,0.0,0.0,0.0,0.0,0.0,0.002042,-0.00018,-0.052134,0.0,0.0,0.0,0.0,0.0,0.0,0.0,0.0,0.0,0.229,-0.104,-9.685,0.0,0.0,0.0,0.0,0.0,0.0,0.0,0.0,0.0
1581012846674815889,24638,1581012846673269987,,0.00781634568508,0.0115933308103,-0.249502733754,0.968273146003,0.0,0.0,0.0,0.0,0.0,0.0,0.0,0.0,0.0,0.000954,-0.000954,-0.051491,0.0,0.0,0.0,0.0,0.0,0.0,0.0,0.0,0.0,0.262,-0.091,-9.667,0.0,0.0,0.0,0.0,0.0,0.0,0.0,0.0,0.0
1581012846700247527,24639,1581012846698139905,,0.00781966918404,0.0115712470616,-0.250144840348,0.968107699516,0.0,0.0,0.0,0.0,0.0,0.0,0.0,0.0,0.0,0.001771,-0.000822,-0.052334,0.0,0.0,0.0,0.0,0.0,0.0,0.0,0.0,0.0,0.261,-0.075,-9.681,0.0,0.0,0.0,0.0,0.0,0.0,0.0,0.0,0.0
1581012846724497262,24640,1581012846723110914,,0.00782515431681,0.0115576111625,-0.250786847902,0.967941705633,0.0,0.0,0.0,0.0,0.0,0.0,0.0,0.0,0.0,0.000623,-0.00074,-0.052289,0.0,0.0,0.0,0.0,0.0,0.0,0.0,0.0,0.0,0.268,-0.095,-9.632,0.0,0.0,0.0,0.0,0.0,0.0,0.0,0.0,0.0
1581012846749682805,24641,1581012846748116970,,0.00782896060341,0.0115713676733,-0.251445567069,0.967770601758,0.0,0.0,0.0,0.0,0.0,0.0,0.0,0.0,0.0,0.000951,0.000936,-0.053332,0.0,0.0,0.0,0.0,0.0,0.0,0.0,0.0,0.0,0.297,-0.111,-9.635,0.0,0.0,0.0,0.0,0.0,0.0,0.0,0.0,0.0
1581012846774712717,24642,1581012846773207902,,0.00785551806743,0.01157035432,-0.252070686014,0.967607765052,0.0,0.0,0.0,0.0,0.0,0.0,0.0,0.0,0.0,0.001651,0.000947,-0.050837,0.0,0.0,0.0,0.0,0.0,0.0,0.0,0.0,0.0,0.253,-0.077,-9.72,0.0,0.0,0.0,0.0,0.0,0.0,0.0,0.0,0.0
1581012846800055315,24643,1581012846798139095,,0.0078546466341,0.011567415675,-0.252703828845,0.967442646521,0.0,0.0,0.0,0.0,0.0,0.0,0.0,0.0,0.0,0.001398,-1.6e-05,-0.051908,0.0,0.0,0.0,0.0,0.0,0.0,0.0,0.0,0.0,0.245,-0.09,-9.698,0.0,0.0,0.0,0.0,0.0,0.0,0.0,0.0,0.0
1581012846824745765,24644,1581012846823206901,,0.00785779632301,0.0115453896277,-0.253336943653,0.967277288059,0.0,0.0,0.0,0.0,0.0,0.0,0.0,0.0,0.0,0.001391,-0.00135,-0.052856,0.0,0.0,0.0,0.0,0.0,0.0,0.0,0.0,0.0,0.254,-0.063,-9.685,0.0,0.0,0.0,0.0,0.0,0.0,0.0,0.0,0.0
1581012846849414227,24645,1581012846847987890,,0.00787147483577,0.0115296567139,-0.253961621502,0.967113541268,0.0,0.0,0.0,0.0,0.0,0.0,0.0,0.0,0.0,0.000841,-0.000467,-0.052292,0.0,0.0,0.0,0.0,0.0,0.0,0.0,0.0,0.0,0.261,-0.081,-9.677,0.0,0.0,0.0,0.0,0.0,0.0,0.0,0.0,0.0
1581012846874179643,24646,1581012846873003959,,0.00787037990574,0.0115268614984,-0.254577564365,0.966951628731,0.0,0.0,0.0,0.0,0.0,0.0,0.0,0.0,0.0,0.000991,-0.001383,-0.051059,0.0,0.0,0.0,0.0,0.0,0.0,0.0,0.0,0.0,0.253,-0.096,-9.697,0.0,0.0,0.0,0.0,0.0,0.0,0.0,0.0,0.0
1581012846900342444,24647,1581012846898030042,,0.00788625879463,0.0115195495682,-0.255202041892,0.966786959322,0.0,0.0,0.0,0.0,0.0,0.0,0.0,0.0,0.0,0.000285,-0.000399,-0.052195,0.0,0.0,0.0,0.0,0.0,0.0,0.0,0.0,0.0,0.274,-0.115,-9.654,0.0,0.0,0.0,0.0,0.0,0.0,0.0,0.0,0.0
1581012846924225604,24648,1581012846922950029,,0.00789602817178,0.0115228211801,-0.255834757937,0.966619601478,0.0,0.0,0.0,0.0,0.0,0.0,0.0,0.0,0.0,0.001884,0.001699,-0.050933,0.0,0.0,0.0,0.0,0.0,0.0,0.0,0.0,0.0,0.257,-0.114,-9.662,0.0,0.0,0.0,0.0,0.0,0.0,0.0,0.0,0.0
1581012846949348807,24649,1581012846947896957,,0.00790366865903,0.011517581802,-0.256475788021,0.966449712862,0.0,0.0,0.0,0.0,0.0,0.0,0.0,0.0,0.0,0.000344,-0.000455,-0.052519,0.0,0.0,0.0,0.0,0.0,0.0,0.0,0.0,0.0,0.289,-0.09,-9.693,0.0,0.0,0.0,0.0,0.0,0.0,0.0,0.0,0.0
1581012846974537550,24650,1581012846973094940,,0.00791993893574,0.0115099553635,-0.25713367046,0.966274842377,0.0,0.0,0.0,0.0,0.0,0.0,0.0,0.0,0.0,0.001679,-0.001498,-0.052903,0.0,0.0,0.0,0.0,0.0,0.0,0.0,0.0,0.0,0.249,-0.07,-9.671,0.0,0.0,0.0,0.0,0.0,0.0,0.0,0.0,0.0
1581012847000077992,24651,1581012846998105049,,0.00793814974485,0.0115109510229,-0.257766151184,0.966106151046,0.0,0.0,0.0,0.0,0.0,0.0,0.0,0.0,0.0,0.001117,-0.00047,-0.051711,0.0,0.0,0.0,0.0,0.0,0.0,0.0,0.0,0.0,0.271,-0.101,-9.658,0.0,0.0,0.0,0.0,0.0,0.0,0.0,0.0,0.0
1581012847026617968,24652,1581012847023196935,,0.00793970745755,0.0115162991013,-0.258415179133,0.965932674204,0.0,0.0,0.0,0.0,0.0,0.0,0.0,0.0,0.0,0.001806,0.000372,-0.051952,0.0,0.0,0.0,0.0,0.0,0.0,0.0,0.0,0.0,0.263,-0.086,-9.707,0.0,0.0,0.0,0.0,0.0,0.0,0.0,0.0,0.0
1581012847049403491,24653,1581012847047986030,,0.00794127594548,0.0115216502772,-0.259064090145,0.965758761238,0.0,0.0,0.0,0.0,0.0,0.0,0.0,0.0,0.0,0.000656,-0.00107,-0.051765,0.0,0.0,0.0,0.0,0.0,0.0,0.0,0.0,0.0,0.256,-0.095,-9.669,0.0,0.0,0.0,0.0,0.0,0.0,0.0,0.0,0.0
1581012847074582908,24654,1581012847073084115,,0.00795734197973,0.0115141145398,-0.259704649077,0.965586661633,0.0,0.0,0.0,0.0,0.0,0.0,0.0,0.0,0.0,0.000407,0.000562,-0.051718,0.0,0.0,0.0,0.0,0.0,0.0,0.0,0.0,0.0,0.264,-0.083,-9.689,0.0,0.0,0.0,0.0,0.0,0.0,0.0,0.0,0.0
1581012847100474325,24655,1581012847098067998,,0.00795665230351,0.0115110370025,-0.260353317613,0.96541200413,0.0,0.0,0.0,0.0,0.0,0.0,0.0,0.0,0.0,0.001456,-0.001192,-0.052297,0.0,0.0,0.0,0.0,0.0,0.0,0.0,0.0,0.0,0.241,-0.092,-9.69,0.0,0.0,0.0,0.0,0.0,0.0,0.0,0.0,0.0
1581012847124741611,24656,1581012847122952938,,0.0079640841473,0.0115058964209,-0.260976699153,0.965243674007,0.0,0.0,0.0,0.0,0.0,0.0,0.0,0.0,0.0,0.000218,-0.000397,-0.051433,0.0,0.0,0.0,0.0,0.0,0.0,0.0,0.0,0.0,0.272,-0.09,-9.721,0.0,0.0,0.0,0.0,0.0,0.0,0.0,0.0,0.0
1581012847150163736,24657,1581012847147939920,,0.00796943139783,0.0114921897998,-0.261616806178,0.965070497146,0.0,0.0,0.0,0.0,0.0,0.0,0.0,0.0,0.0,0.000926,-0.002264,-0.052068,0.0,0.0,0.0,0.0,0.0,0.0,0.0,0.0,0.0,0.24,-0.091,-9.671,0.0,0.0,0.0,0.0,0.0,0.0,0.0,0.0,0.0
1581012847174466861,24658,1581012847172997951,,0.00798288383559,0.0114764015223,-0.262231637396,0.964903691631,0.0,0.0,0.0,0.0,0.0,0.0,0.0,0.0,0.0,0.000681,-0.000345,-0.051995,0.0,0.0,0.0,0.0,0.0,0.0,0.0,0.0,0.0,0.255,-0.105,-9.639,0.0,0.0,0.0,0.0,0.0,0.0,0.0,0.0,0.0
1581012847199717843,24659,1581012847197998046,,0.00797958161316,0.01146511867,-0.262854580913,0.964734339922,0.0,0.0,0.0,0.0,0.0,0.0,0.0,0.0,0.0,0.001608,0.000576,-0.052313,0.0,0.0,0.0,0.0,0.0,0.0,0.0,0.0,0.0,0.249,-0.066,-9.653,0.0,0.0,0.0,0.0,0.0,0.0,0.0,0.0,0.0
1581012847224490359,24660,1581012847222867012,,0.00797616819464,0.0114539144748,-0.263468997744,0.96456688509,0.0,0.0,0.0,0.0,0.0,0.0,0.0,0.0,0.0,0.000971,-0.002059,-0.051575,0.0,0.0,0.0,0.0,0.0,0.0,0.0,0.0,0.0,0.262,-0.088,-9.691,0.0,0.0,0.0,0.0,0.0,0.0,0.0,0.0,0.0
1581012847249905784,24661,1581012847247977018,,0.00800059477692,0.0114440123935,-0.264108864511,0.964391794216,0.0,0.0,0.0,0.0,0.0,0.0,0.0,0.0,0.0,0.000662,-0.001099,-0.05268,0.0,0.0,0.0,0.0,0.0,0.0,0.0,0.0,0.0,0.278,-0.074,-9.675,0.0,0.0,0.0,0.0,0.0,0.0,0.0,0.0,0.0
1581012847275092402,24662,1581012847272918939,,0.0079997685973,0.0114410140469,-0.264748315405,0.964216488342,0.0,0.0,0.0,0.0,0.0,0.0,0.0,0.0,0.0,0.000675,0.000442,-0.050779,0.0,0.0,0.0,0.0,0.0,0.0,0.0,0.0,0.0,0.261,-0.093,-9.705,0.0,0.0,0.0,0.0,0.0,0.0,0.0,0.0,0.0
1581012847299592521,24663,1581012847297794103,,0.00799884214694,0.0114380916316,-0.265379237065,0.964043074307,0.0,0.0,0.0,0.0,0.0,0.0,0.0,0.0,0.0,0.001736,-0.001949,-0.051443,0.0,0.0,0.0,0.0,0.0,0.0,0.0,0.0,0.0,0.249,-0.07,-9.717,0.0,0.0,0.0,0.0,0.0,0.0,0.0,0.0,0.0
1581012847325031822,24664,1581012847323035955,,0.00801116716182,0.0114495373927,-0.266026985145,0.963864291521,0.0,0.0,0.0,0.0,0.0,0.0,0.0,0.0,0.0,0.001087,-0.000433,-0.051367,0.0,0.0,0.0,0.0,0.0,0.0,0.0,0.0,0.0,0.288,-0.086,-9.649,0.0,0.0,0.0,0.0,0.0,0.0,0.0,0.0,0.0
1581012847349780412,24665,1581012847348062038,,0.00801895875822,0.0114440817122,-0.266683005078,0.96368298942,0.0,0.0,0.0,0.0,0.0,0.0,0.0,0.0,0.0,0.000785,-0.000795,-0.052521,0.0,0.0,0.0,0.0,0.0,0.0,0.0,0.0,0.0,0.268,-0.071,-9.673,0.0,0.0,0.0,0.0,0.0,0.0,0.0,0.0,0.0
1581012847374726634,24666,1581012847373311042,,0.00800963078175,0.0114434963673,-0.267313477269,0.963508379349,0.0,0.0,0.0,0.0,0.0,0.0,0.0,0.0,0.0,-0.000374,-0.000871,-0.05155,0.0,0.0,0.0,0.0,0.0,0.0,0.0,0.0,0.0,0.289,-0.094,-9.703,0.0,0.0,0.0,0.0,0.0,0.0,0.0,0.0,0.0
1581012847400101520,24667,1581012847397770881,,0.00801114928078,0.0114489269227,-0.267952349866,0.963330826747,0.0,0.0,0.0,0.0,0.0,0.0,0.0,0.0,0.0,0.001333,0.001685,-0.052425,0.0,0.0,0.0,0.0,0.0,0.0,0.0,0.0,0.0,0.25,-0.086,-9.674,0.0,0.0,0.0,0.0,0.0,0.0,0.0,0.0,0.0
1581012847424700255,24668,1581012847423336982,,0.00801033563921,0.0114459551096,-0.268591096212,0.963152972103,0.0,0.0,0.0,0.0,0.0,0.0,0.0,0.0,0.0,0.000318,0.000448,-0.053399,0.0,0.0,0.0,0.0,0.0,0.0,0.0,0.0,0.0,0.238,-0.067,-9.681,0.0,0.0,0.0,0.0,0.0,0.0,0.0,0.0,0.0
1581012847449510972,24669,1581012847447694063,,0.00801792512181,0.0114406399368,-0.269229824334,0.962974623925,0.0,0.0,0.0,0.0,0.0,0.0,0.0,0.0,0.0,0.002082,0.000355,-0.051844,0.0,0.0,0.0,0.0,0.0,0.0,0.0,0.0,0.0,0.26,-0.084,-9.664,0.0,0.0,0.0,0.0,0.0,0.0,0.0,0.0,0.0
1581012847475077490,24670,1581012847473241090,,0.00803381328436,0.0114330347936,-0.269860131824,0.962798137104,0.0,0.0,0.0,0.0,0.0,0.0,0.0,0.0,0.0,0.001793,-0.001874,-0.050136,0.0,0.0,0.0,0.0,0.0,0.0,0.0,0.0,0.0,0.287,-0.079,-9.72,0.0,0.0,0.0,0.0,0.0,0.0,0.0,0.0,0.0
1581012847501086098,24671,1581012847498323917,,0.00804611322345,0.0114445054997,-0.270498640238,0.962618703841,0.0,0.0,0.0,0.0,0.0,0.0,0.0,0.0,0.0,0.000481,-0.000692,-0.051836,0.0,0.0,0.0,0.0,0.0,0.0,0.0,0.0,0.0,0.221,-0.108,-9.686,0.0,0.0,0.0,0.0,0.0,0.0,0.0,0.0,0.0
1581012847524562757,24672,1581012847523260116,,0.0080536019109,0.0114392368801,-0.271128614725,0.96244145673,0.0,0.0,0.0,0.0,0.0,0.0,0.0,0.0,0.0,0.001131,0.001367,-0.051069,0.0,0.0,0.0,0.0,0.0,0.0,0.0,0.0,0.0,0.228,-0.097,-9.672,0.0,0.0,0.0,0.0,0.0,0.0,0.0,0.0,0.0
1581012847550876463,24673,1581012847548227071,,0.00806118692829,0.0114338930135,-0.271766870394,0.962261425763,0.0,0.0,0.0,0.0,0.0,0.0,0.0,0.0,0.0,0.000368,-0.000285,-0.05269,0.0,0.0,0.0,0.0,0.0,0.0,0.0,0.0,0.0,0.262,-0.081,-9.658,0.0,0.0,0.0,0.0,0.0,0.0,0.0,0.0,0.0
1581012847575656229,24674,1581012847573581933,,0.00806027290529,0.0114309916389,-0.272396511027,0.96208341905,0.0,0.0,0.0,0.0,0.0,0.0,0.0,0.0,0.0,0.000606,-0.000869,-0.052266,0.0,0.0,0.0,0.0,0.0,0.0,0.0,0.0,0.0,0.272,-0.078,-9.718,0.0,0.0,0.0,0.0,0.0,0.0,0.0,0.0,0.0
1581012847599716533,24675,1581012847598195075,,0.00805935854054,0.0114280963567,-0.273026035046,0.961905000268,0.0,0.0,0.0,0.0,0.0,0.0,0.0,0.0,0.0,-0.000155,0.000676,-0.052589,0.0,0.0,0.0,0.0,0.0,0.0,0.0,0.0,0.0,0.247,-0.107,-9.651,0.0,0.0,0.0,0.0,0.0,0.0,0.0,0.0,0.0
1581012847625587387,24676,1581012847623331069,,0.00805844384162,0.0114252071662,-0.273655442181,0.961726169494,0.0,0.0,0.0,0.0,0.0,0.0,0.0,0.0,0.0,5.9e-05,-0.000634,-0.051852,0.0,0.0,0.0,0.0,0.0,0.0,0.0,0.0,0.0,0.252,-0.066,-9.693,0.0,0.0,0.0,0.0,0.0,0.0,0.0,0.0,0.0
1581012847650841394,24677,1581012847648310899,,0.00805513625229,0.0114139326947,-0.274284724991,0.961547048541,0.0,0.0,0.0,0.0,0.0,0.0,0.0,0.0,0.0,0.000503,-0.000147,-0.051964,0.0,0.0,0.0,0.0,0.0,0.0,0.0,0.0,0.0,0.254,-0.079,-9.711,0.0,0.0,0.0,0.0,0.0,0.0,0.0,0.0,0.0
1581012847675832292,24678,1581012847673568010,,0.00806619832959,0.0113894794876,-0.274914082428,0.961367496582,0.0,0.0,0.0,0.0,0.0,0.0,0.0,0.0,0.0,0.001824,-0.000858,-0.052323,0.0,0.0,0.0,0.0,0.0,0.0,0.0,0.0,0.0,0.28,-0.098,-9.659,0.0,0.0,0.0,0.0,0.0,0.0,0.0,0.0,0.0
1581012847699937685,24679,1581012847698129892,,0.00808464128017,0.0113900402979,-0.27556011943,0.96118235842,0.0,0.0,0.0,0.0,0.0,0.0,0.0,0.0,0.0,0.000684,-0.000631,-0.052521,0.0,0.0,0.0,0.0,0.0,0.0,0.0,0.0,0.0,0.245,-0.095,-9.673,0.0,0.0,0.0,0.0,0.0,0.0,0.0,0.0,0.0
1581012847725004261,24680,1581012847723329067,,0.00808119950794,0.0113788405826,-0.276180660006,0.961004401259,0.0,0.0,0.0,0.0,0.0,0.0,0.0,0.0,0.0,0.000587,-0.000957,-0.052113,0.0,0.0,0.0,0.0,0.0,0.0,0.0,0.0,0.0,0.255,-0.086,-9.682,0.0,0.0,0.0,0.0,0.0,0.0,0.0,0.0,0.0
1581012847750241068,24681,1581012847748151063,,0.00808277438919,0.0113842791569,-0.276817869102,0.960820968907,0.0,0.0,0.0,0.0,0.0,0.0,0.0,0.0,0.0,0.000265,0.000184,-0.053085,0.0,0.0,0.0,0.0,0.0,0.0,0.0,0.0,0.0,0.272,-0.087,-9.661,0.0,0.0,0.0,0.0,0.0,0.0,0.0,0.0,0.0
1581012847774726624,24682,1581012847773138046,,0.00809516341372,0.0113956828233,-0.277455062331,0.960636921594,0.0,0.0,0.0,0.0,0.0,0.0,0.0,0.0,0.0,0.002566,-0.000433,-0.05149,0.0,0.0,0.0,0.0,0.0,0.0,0.0,0.0,0.0,0.254,-0.103,-9.67,0.0,0.0,0.0,0.0,0.0,0.0,0.0,0.0,0.0
1581012847799963155,24683,1581012847798063993,,0.00809413916257,0.011392879484,-0.27807525728,0.960457619313,0.0,0.0,0.0,0.0,0.0,0.0,0.0,0.0,0.0,-4.6e-05,0.000266,-0.051855,0.0,0.0,0.0,0.0,0.0,0.0,0.0,0.0,0.0,0.246,-0.099,-9.644,0.0,0.0,0.0,0.0,0.0,0.0,0.0,0.0,0.0
1581012847825029094,24684,1581012847823309898,,0.00809301527199,0.0113901528431,-0.278686956321,0.960280348596,0.0,0.0,0.0,0.0,0.0,0.0,0.0,0.0,0.0,0.002394,-0.000196,-0.052302,0.0,0.0,0.0,0.0,0.0,0.0,0.0,0.0,0.0,0.256,-0.081,-9.69,0.0,0.0,0.0,0.0,0.0,0.0,0.0,0.0,0.0
1581012847852147278,24685,1581012847848341941,,0.00809783334742,0.0113766161438,-0.279298635306,0.960102739303,0.0,0.0,0.0,0.0,0.0,0.0,0.0,0.0,0.0,-0.000368,-0.001063,-0.051249,0.0,0.0,0.0,0.0,0.0,0.0,0.0,0.0,0.0,0.261,-0.1,-9.678,0.0,0.0,0.0,0.0,0.0,0.0,0.0,0.0,0.0
1581012847874737456,24686,1581012847873138904,,0.00811619556101,0.0113771772129,-0.279935443686,0.959917097763,0.0,0.0,0.0,0.0,0.0,0.0,0.0,0.0,0.0,0.001224,-0.000962,-0.051624,0.0,0.0,0.0,0.0,0.0,0.0,0.0,0.0,0.0,0.249,-0.086,-9.721,0.0,0.0,0.0,0.0,0.0,0.0,0.0,0.0,0.0
1581012847901088413,24687,1581012847899029016,,0.0081294689186,0.0113611097479,-0.28055536554,0.959736174054,0.0,0.0,0.0,0.0,0.0,0.0,0.0,0.0,0.0,0.002012,-0.001487,-0.052619,0.0,0.0,0.0,0.0,0.0,0.0,0.0,0.0,0.0,0.269,-0.087,-9.695,0.0,0.0,0.0,0.0,0.0,0.0,0.0,0.0,0.0
1581012847925530455,24688,1581012847924040079,,0.00813935577448,0.0113641605621,-0.281183457558,0.959552223664,0.0,0.0,0.0,0.0,0.0,0.0,0.0,0.0,0.0,0.001205,0.000217,-0.052447,0.0,0.0,0.0,0.0,0.0,0.0,0.0,0.0,0.0,0.251,-0.078,-9.686,0.0,0.0,0.0,0.0,0.0,0.0,0.0,0.0,0.0
1581012847949971422,24689,1581012847948091030,,0.00815280470287,0.0113479281523,-0.281819887629,0.959365575388,0.0,0.0,0.0,0.0,0.0,0.0,0.0,0.0,0.0,0.000564,-0.001269,-0.052845,0.0,0.0,0.0,0.0,0.0,0.0,0.0,0.0,0.0,0.229,-0.095,-9.669,0.0,0.0,0.0,0.0,0.0,0.0,0.0,0.0,0.0
1581012847974776551,24690,1581012847973160028,,0.0081491980594,0.0113368260434,-0.282430884462,0.959186041625,0.0,0.0,0.0,0.0,0.0,0.0,0.0,0.0,0.0,-0.000124,-0.002164,-0.052105,0.0,0.0,0.0,0.0,0.0,0.0,0.0,0.0,0.0,0.257,-0.1,-9.686,0.0,0.0,0.0,0.0,0.0,0.0,0.0,0.0,0.0
1581012847999900029,24691,1581012847998095989,,0.00814834629321,0.0113338890226,-0.283066879676,0.95899858657,0.0,0.0,0.0,0.0,0.0,0.0,0.0,0.0,0.0,0.001523,-0.000119,-0.052669,0.0,0.0,0.0,0.0,0.0,0.0,0.0,0.0,0.0,0.242,-0.084,-9.654,0.0,0.0,0.0,0.0,0.0,0.0,0.0,0.0,0.0
1581012848024751810,24692,1581012848023169040,,0.00815833617839,0.0113368498438,-0.283702855247,0.958810516896,0.0,0.0,0.0,0.0,0.0,0.0,0.0,0.0,0.0,0.000424,-0.000625,-0.052063,0.0,0.0,0.0,0.0,0.0,0.0,0.0,0.0,0.0,0.248,-0.09,-9.667,0.0,0.0,0.0,0.0,0.0,0.0,0.0,0.0,0.0
1581012848049988867,24693,1581012848048053979,,0.00817660019133,0.0113373924258,-0.284330439225,0.958624435362,0.0,0.0,0.0,0.0,0.0,0.0,0.0,0.0,0.0,0.001959,4.3e-05,-0.051099,0.0,0.0,0.0,0.0,0.0,0.0,0.0,0.0,0.0,0.257,-0.072,-9.681,0.0,0.0,0.0,0.0,0.0,0.0,0.0,0.0,0.0
1581012848074796959,24694,1581012848072983026,,0.00817545696857,0.0113346678414,-0.284940969659,0.958443180902,0.0,0.0,0.0,0.0,0.0,0.0,0.0,0.0,0.0,0.001105,-0.001221,-0.051393,0.0,0.0,0.0,0.0,0.0,0.0,0.0,0.0,0.0,0.27,-0.098,-9.673,0.0,0.0,0.0,0.0,0.0,0.0,0.0,0.0,0.0
1581012848100508632,24695,1581012848098157882,,0.00819372713925,0.0113351852046,-0.285568312753,0.958256288872,0.0,0.0,0.0,0.0,0.0,0.0,0.0,0.0,0.0,0.00189,0.00064,-0.050461,0.0,0.0,0.0,0.0,0.0,0.0,0.0,0.0,0.0,0.3,-0.07,-9.686,0.0,0.0,0.0,0.0,0.0,0.0,0.0,0.0,0.0
1581012848124783918,24696,1581012848123277902,,0.00818769174915,0.0113156669004,-0.286186958041,0.958071992302,0.0,0.0,0.0,0.0,0.0,0.0,0.0,0.0,0.0,0.000963,-0.001385,-0.052862,0.0,0.0,0.0,0.0,0.0,0.0,0.0,0.0,0.0,0.285,-0.105,-9.675,0.0,0.0,0.0,0.0,0.0,0.0,0.0,0.0,0.0
1581012848149607661,24697,1581012848148041963,,0.008214414954,0.0113135875346,-0.28682251547,0.957881710204,0.0,0.0,0.0,0.0,0.0,0.0,0.0,0.0,0.0,0.002853,0.00039,-0.051983,0.0,0.0,0.0,0.0,0.0,0.0,0.0,0.0,0.0,0.26,-0.083,-9.647,0.0,0.0,0.0,0.0,0.0,0.0,0.0,0.0,0.0
1581012848174374739,24698,1581012848172991991,,0.00821931047052,0.0112998510284,-0.287449380533,0.957693902003,0.0,0.0,0.0,0.0,0.0,0.0,0.0,0.0,0.0,0.000442,0.000598,-0.052324,0.0,0.0,0.0,0.0,0.0,0.0,0.0,0.0,0.0,0.244,-0.086,-9.681,0.0,0.0,0.0,0.0,0.0,0.0,0.0,0.0,0.0
1581012848199706474,24699,1581012848198038101,,0.00822399454416,0.0112862565005,-0.288059410929,0.957510711221,0.0,0.0,0.0,0.0,0.0,0.0,0.0,0.0,0.0,0.001403,0.00042,-0.049827,0.0,0.0,0.0,0.0,0.0,0.0,0.0,0.0,0.0,0.257,-0.111,-9.675,0.0,0.0,0.0,0.0,0.0,0.0,0.0,0.0,0.0
1581012848224932343,24700,1581012848223242998,,0.00823973382968,0.0112783522304,-0.288686136914,0.957321899839,0.0,0.0,0.0,0.0,0.0,0.0,0.0,0.0,0.0,0.001198,-0.001501,-0.052324,0.0,0.0,0.0,0.0,0.0,0.0,0.0,0.0,0.0,0.264,-0.085,-9.696,0.0,0.0,0.0,0.0,0.0,0.0,0.0,0.0,0.0
1581012848252425990,24701,1581012848248176097,,0.00824983433199,0.0112811658037,-0.289329351258,0.957127578765,0.0,0.0,0.0,0.0,0.0,0.0,0.0,0.0,0.0,0.001092,-0.002936,-0.052636,0.0,0.0,0.0,0.0,0.0,0.0,0.0,0.0,0.0,0.261,-0.09,-9.703,0.0,0.0,0.0,0.0,0.0,0.0,0.0,0.0,0.0
1581012848274453836,24702,1581012848273114919,,0.00827401614308,0.011270630996,-0.289964275381,0.956935333519,0.0,0.0,0.0,0.0,0.0,0.0,0.0,0.0,0.0,0.001247,-0.001461,-0.052098,0.0,0.0,0.0,0.0,0.0,0.0,0.0,0.0,0.0,0.266,-0.068,-9.656,0.0,0.0,0.0,0.0,0.0,0.0,0.0,0.0,0.0
1581012848300604537,24703,1581012848298367977,,0.0082730418026,0.0112677491318,-0.290590427623,0.95674541963,0.0,0.0,0.0,0.0,0.0,0.0,0.0,0.0,0.0,0.002062,-0.001102,-0.052279,0.0,0.0,0.0,0.0,0.0,0.0,0.0,0.0,0.0,0.262,-0.081,-9.685,0.0,0.0,0.0,0.0,0.0,0.0,0.0,0.0,0.0
1581012848324570387,24704,1581012848323091983,,0.00828305343104,0.0112706075708,-0.291224906495,0.956552360442,0.0,0.0,0.0,0.0,0.0,0.0,0.0,0.0,0.0,0.002178,-0.000337,-0.052099,0.0,0.0,0.0,0.0,0.0,0.0,0.0,0.0,0.0,0.243,-0.077,-9.688,0.0,0.0,0.0,0.0,0.0,0.0,0.0,0.0,0.0
1581012848350414990,24705,1581012848347846984,,0.0082792417913,0.0112596014031,-0.291825765136,0.956369383834,0.0,0.0,0.0,0.0,0.0,0.0,0.0,0.0,0.0,-6.4e-05,-0.001674,-0.052016,0.0,0.0,0.0,0.0,0.0,0.0,0.0,0.0,0.0,0.25,-0.085,-9.66,0.0,0.0,0.0,0.0,0.0,0.0,0.0,0.0,0.0
1581012848374277749,24706,1581012848372931003,,0.0082949536378,0.0112516281183,-0.292451743085,0.956178107141,0.0,0.0,0.0,0.0,0.0,0.0,0.0,0.0,0.0,0.001319,-0.002463,-0.052115,0.0,0.0,0.0,0.0,0.0,0.0,0.0,0.0,0.0,0.278,-0.085,-9.679,0.0,0.0,0.0,0.0,0.0,0.0,0.0,0.0,0.0
1581012848399766615,24707,1581012848397880077,,0.00829397347774,0.0112487542575,-0.293077399356,0.955986565553,0.0,0.0,0.0,0.0,0.0,0.0,0.0,0.0,0.0,0.000807,-0.000846,-0.05295,0.0,0.0,0.0,0.0,0.0,0.0,0.0,0.0,0.0,0.264,-0.099,-9.637,0.0,0.0,0.0,0.0,0.0,0.0,0.0,0.0,0.0
1581012848424898430,24708,1581012848423366069,,0.00829887001324,0.0112349098403,-0.293711364283,0.955792100851,0.0,0.0,0.0,0.0,0.0,0.0,0.0,0.0,0.0,0.001413,-0.000514,-0.052459,0.0,0.0,0.0,0.0,0.0,0.0,0.0,0.0,0.0,0.234,-0.111,-9.694,0.0,0.0,0.0,0.0,0.0,0.0,0.0,0.0,0.0
1581012848450076860,24709,1581012848448075056,,0.00830365391099,0.0112211363423,-0.294336860984,0.95559978427,0.0,0.0,0.0,0.0,0.0,0.0,0.0,0.0,0.0,0.001847,-0.001065,-0.052073,0.0,0.0,0.0,0.0,0.0,0.0,0.0,0.0,0.0,0.261,-0.099,-9.672,0.0,0.0,0.0,0.0,0.0,0.0,0.0,0.0,0.0
1581012848474763473,24710,1581012848473295927,,0.00832500057423,0.0112022859836,-0.294954089789,0.955409487116,0.0,0.0,0.0,0.0,0.0,0.0,0.0,0.0,0.0,0.001318,0.000123,-0.052085,0.0,0.0,0.0,0.0,0.0,0.0,0.0,0.0,0.0,0.27,-0.094,-9.689,0.0,0.0,0.0,0.0,0.0,0.0,0.0,0.0,0.0
1581012848499350570,24711,1581012848497759103,,0.00832151409825,0.0111910055315,-0.295587573947,0.955213850364,0.0,0.0,0.0,0.0,0.0,0.0,0.0,0.0,0.0,0.001247,-0.000537,-0.052054,0.0,0.0,0.0,0.0,0.0,0.0,0.0,0.0,0.0,0.264,-0.103,-9.647,0.0,0.0,0.0,0.0,0.0,0.0,0.0,0.0,0.0
1581012848525162159,24712,1581012848523366928,,0.00832635042476,0.0111771496167,-0.296221025995,0.955017720764,0.0,0.0,0.0,0.0,0.0,0.0,0.0,0.0,0.0,0.001375,-0.000157,-0.053345,0.0,0.0,0.0,0.0,0.0,0.0,0.0,0.0,0.0,0.254,-0.081,-9.675,0.0,0.0,0.0,0.0,0.0,0.0,0.0,0.0,0.0
1581012848550129381,24713,1581012848548088073,,0.00833644864827,0.0111798848665,-0.296862689543,0.954818337358,0.0,0.0,0.0,0.0,0.0,0.0,0.0,0.0,0.0,0.000913,-0.00106,-0.052562,0.0,0.0,0.0,0.0,0.0,0.0,0.0,0.0,0.0,0.249,-0.093,-9.689,0.0,0.0,0.0,0.0,0.0,0.0,0.0,0.0,0.0
1581012848574732279,24714,1581012848573247909,,0.00833837923487,0.0111579098487,-0.297470882551,0.954629271767,0.0,0.0,0.0,0.0,0.0,0.0,0.0,0.0,0.0,0.001284,-0.001201,-0.05138,0.0,0.0,0.0,0.0,0.0,0.0,0.0,0.0,0.0,0.262,-0.097,-9.678,0.0,0.0,0.0,0.0,0.0,0.0,0.0,0.0,0.0
1581012848600399925,24715,1581012848598287105,,0.00834558295952,0.0111525228321,-0.298087293168,0.954436974416,0.0,0.0,0.0,0.0,0.0,0.0,0.0,0.0,0.0,-1.1e-05,-0.000469,-0.050518,0.0,0.0,0.0,0.0,0.0,0.0,0.0,0.0,0.0,0.239,-0.095,-9.68,0.0,0.0,0.0,0.0,0.0,0.0,0.0,0.0,0.0
1581012848624923720,24716,1581012848623361110,,0.00835258864846,0.0111472769467,-0.298686924725,0.95424949226,0.0,0.0,0.0,0.0,0.0,0.0,0.0,0.0,0.0,0.00133,-0.000642,-0.051346,0.0,0.0,0.0,0.0,0.0,0.0,0.0,0.0,0.0,0.266,-0.094,-9.664,0.0,0.0,0.0,0.0,0.0,0.0,0.0,0.0,0.0
1581012848649599657,24717,1581012848648147106,,0.00836007719461,0.0111416618938,-0.299328066873,0.954048573638,0.0,0.0,0.0,0.0,0.0,0.0,0.0,0.0,0.0,0.001141,-0.00093,-0.051245,0.0,0.0,0.0,0.0,0.0,0.0,0.0,0.0,0.0,0.25,-0.09,-9.672,0.0,0.0,0.0,0.0,0.0,0.0,0.0,0.0,0.0
1581012848674851440,24718,1581012848673337936,,0.00837588585301,0.0111334240859,-0.299969171038,0.953847151189,0.0,0.0,0.0,0.0,0.0,0.0,0.0,0.0,0.0,0.000608,-0.000347,-0.052185,0.0,0.0,0.0,0.0,0.0,0.0,0.0,0.0,0.0,0.267,-0.115,-9.633,0.0,0.0,0.0,0.0,0.0,0.0,0.0,0.0,0.0
1581012848700087659,24719,1581012848698266029,,0.00838326797681,0.0111278665398,-0.300601720406,0.953647994332,0.0,0.0,0.0,0.0,0.0,0.0,0.0,0.0,0.0,0.001294,0.000708,-0.052154,0.0,0.0,0.0,0.0,0.0,0.0,0.0,0.0,0.0,0.257,-0.092,-9.693,0.0,0.0,0.0,0.0,0.0,0.0,0.0,0.0,0.0
1581012848724855187,24720,1581012848723289966,,0.00839327415987,0.0111306248267,-0.301234141718,0.95344829645,0.0,0.0,0.0,0.0,0.0,0.0,0.0,0.0,0.0,0.000111,-0.001096,-0.052774,0.0,0.0,0.0,0.0,0.0,0.0,0.0,0.0,0.0,0.258,-0.105,-9.664,0.0,0.0,0.0,0.0,0.0,0.0,0.0,0.0,0.0
1581012848749690567,24721,1581012848748267889,,0.00840633982003,0.0111141024838,-0.301866519188,0.953248348947,0.0,0.0,0.0,0.0,0.0,0.0,0.0,0.0,0.0,0.002262,-0.000109,-0.05136,0.0,0.0,0.0,0.0,0.0,0.0,0.0,0.0,0.0,0.282,-0.119,-9.677,0.0,0.0,0.0,0.0,0.0,0.0,0.0,0.0,0.0
1581012848774555661,24722,1581012848773191928,,0.00841390300161,0.0111083778956,-0.302515304776,0.95304265411,0.0,0.0,0.0,0.0,0.0,0.0,0.0,0.0,0.0,0.001397,-0.000554,-0.051522,0.0,0.0,0.0,0.0,0.0,0.0,0.0,0.0,0.0,0.245,-0.092,-9.623,0.0,0.0,0.0,0.0,0.0,0.0,0.0,0.0,0.0
1581012848801510127,24723,1581012848799870967,,0.00842938988343,0.0111002968035,-0.303130786628,0.95284702602,0.0,0.0,0.0,0.0,0.0,0.0,0.0,0.0,0.0,0.00073,-0.001546,-0.052492,0.0,0.0,0.0,0.0,0.0,0.0,0.0,0.0,0.0,0.247,-0.082,-9.659,0.0,0.0,0.0,0.0,0.0,0.0,0.0,0.0,0.0
1581012848824716614,24724,1581012848823276996,,0.00843400346718,0.0110864636524,-0.303754354561,0.952648544845,0.0,0.0,0.0,0.0,0.0,0.0,0.0,0.0,0.0,0.001881,-0.000208,-0.052165,0.0,0.0,0.0,0.0,0.0,0.0,0.0,0.0,0.0,0.267,-0.087,-9.641,0.0,0.0,0.0,0.0,0.0,0.0,0.0,0.0,0.0
1581012848850208530,24725,1581012848848336935,,0.00844116103395,0.0110810148993,-0.30436948477,0.952452190218,0.0,0.0,0.0,0.0,0.0,0.0,0.0,0.0,0.0,0.001297,0.000563,-0.050424,0.0,0.0,0.0,0.0,0.0,0.0,0.0,0.0,0.0,0.26,-0.077,-9.684,0.0,0.0,0.0,0.0,0.0,0.0,0.0,0.0,0.0
1581012848874352924,24726,1581012848873136043,,0.00843179178521,0.0110808109262,-0.304992604685,0.952252924177,0.0,0.0,0.0,0.0,0.0,0.0,0.0,0.0,0.0,0.000605,-0.000642,-0.052887,0.0,0.0,0.0,0.0,0.0,0.0,0.0,0.0,0.0,0.249,-0.103,-9.687,0.0,0.0,0.0,0.0,0.0,0.0,0.0,0.0,0.0
1581012848900191914,24727,1581012848898277044,,0.00843913900235,0.0110752163135,-0.305624095616,0.952050436004,0.0,0.0,0.0,0.0,0.0,0.0,0.0,0.0,0.0,0.001084,0.000649,-0.050956,0.0,0.0,0.0,0.0,0.0,0.0,0.0,0.0,0.0,0.264,-0.086,-9.666,0.0,0.0,0.0,0.0,0.0,0.0,0.0,0.0,0.0
1581012848924292756,24728,1581012848923129081,,0.00844667570735,0.0110694694085,-0.30627206494,0.951842183744,0.0,0.0,0.0,0.0,0.0,0.0,0.0,0.0,0.0,0.001853,-0.000504,-0.052859,0.0,0.0,0.0,0.0,0.0,0.0,0.0,0.0,0.0,0.246,-0.077,-9.676,0.0,0.0,0.0,0.0,0.0,0.0,0.0,0.0,0.0
1581012848949756859,24729,1581012848948210954,,0.00845124169828,0.0110556337353,-0.306894975055,0.951641646715,0.0,0.0,0.0,0.0,0.0,0.0,0.0,0.0,0.0,0.000684,-0.000365,-0.051334,0.0,0.0,0.0,0.0,0.0,0.0,0.0,0.0,0.0,0.262,-0.093,-9.674,0.0,0.0,0.0,0.0,0.0,0.0,0.0,0.0,0.0
1581012848974491748,24730,1581012848973153114,,0.00846975068738,0.0110554979225,-0.307542765732,0.951432334186,0.0,0.0,0.0,0.0,0.0,0.0,0.0,0.0,0.0,0.003038,0.000652,-0.052741,0.0,0.0,0.0,0.0,0.0,0.0,0.0,0.0,0.0,0.271,-0.101,-9.71,0.0,0.0,0.0,0.0,0.0,0.0,0.0,0.0,0.0
1581012848999715342,24731,1581012848998107910,,0.00847976941508,0.0110581795002,-0.308173715246,0.951228033338,0.0,0.0,0.0,0.0,0.0,0.0,0.0,0.0,0.0,0.001172,-0.000652,-0.051087,0.0,0.0,0.0,0.0,0.0,0.0,0.0,0.0,0.0,0.269,-0.098,-9.678,0.0,0.0,0.0,0.0,0.0,0.0,0.0,0.0,0.0
1581012849024309114,24732,1581012849023103952,,0.00849809466723,0.0110581578187,-0.308804625533,0.951023239875,0.0,0.0,0.0,0.0,0.0,0.0,0.0,0.0,0.0,0.001639,-0.000413,-0.052217,0.0,0.0,0.0,0.0,0.0,0.0,0.0,0.0,0.0,0.27,-0.078,-9.663,0.0,0.0,0.0,0.0,0.0,0.0,0.0,0.0,0.0
1581012849049974998,24733,1581012849048146963,,0.00849992525296,0.011063443179,-0.309443504219,0.95081547589,0.0,0.0,0.0,0.0,0.0,0.0,0.0,0.0,0.0,0.000461,0.000519,-0.051613,0.0,0.0,0.0,0.0,0.0,0.0,0.0,0.0,0.0,0.251,-0.091,-9.678,0.0,0.0,0.0,0.0,0.0,0.0,0.0,0.0,0.0
1581012849074758189,24734,1581012849073177099,,0.00850436319488,0.0110496558435,-0.310057446406,0.950615569429,0.0,0.0,0.0,0.0,0.0,0.0,0.0,0.0,0.0,0.001316,-0.000204,-0.051359,0.0,0.0,0.0,0.0,0.0,0.0,0.0,0.0,0.0,0.278,-0.105,-9.654,0.0,0.0,0.0,0.0,0.0,0.0,0.0,0.0,0.0
1581012849099598132,24735,1581012849098010063,,0.00852007997556,0.0110412274918,-0.310696240531,0.950406936871,0.0,0.0,0.0,0.0,0.0,0.0,0.0,0.0,0.0,0.001691,-0.000588,-0.05249,0.0,0.0,0.0,0.0,0.0,0.0,0.0,0.0,0.0,0.261,-0.1,-9.664,0.0,0.0,0.0,0.0,0.0,0.0,0.0,0.0,0.0
1581012849124262894,24736,1581012849122960090,,0.00853578926484,0.0110327830078,-0.311334894247,0.950197874984,0.0,0.0,0.0,0.0,0.0,0.0,0.0,0.0,0.0,0.002522,0.000454,-0.052278,0.0,0.0,0.0,0.0,0.0,0.0,0.0,0.0,0.0,0.261,-0.078,-9.644,0.0,0.0,0.0,0.0,0.0,0.0,0.0,0.0,0.0
1581012849150452959,24737,1581012849148211956,,0.00854300837568,0.0110271939841,-0.311956730574,0.94999390327,0.0,0.0,0.0,0.0,0.0,0.0,0.0,0.0,0.0,0.002225,-0.001369,-0.052327,0.0,0.0,0.0,0.0,0.0,0.0,0.0,0.0,0.0,0.25,-0.082,-9.687,0.0,0.0,0.0,0.0,0.0,0.0,0.0,0.0,0.0
1581012849175125809,24738,1581012849173177003,,0.00854730486451,0.0110134606041,-0.312561853328,0.949795101645,0.0,0.0,0.0,0.0,0.0,0.0,0.0,0.0,0.0,0.001266,-0.00126,-0.052956,0.0,0.0,0.0,0.0,0.0,0.0,0.0,0.0,0.0,0.262,-0.081,-9.694,0.0,0.0,0.0,0.0,0.0,0.0,0.0,0.0,0.0
1581012849200029666,24739,1581012849198043107,,0.00855724334882,0.0110161511218,-0.313183428638,0.949590205313,0.0,0.0,0.0,0.0,0.0,0.0,0.0,0.0,0.0,0.000904,-0.000871,-0.052363,0.0,0.0,0.0,0.0,0.0,0.0,0.0,0.0,0.0,0.236,-0.108,-9.67,0.0,0.0,0.0,0.0,0.0,0.0,0.0,0.0,0.0
1581012849224280402,24740,1581012849222954034,,0.00856161811064,0.0110023374904,-0.31379657911,0.949387883957,0.0,0.0,0.0,0.0,0.0,0.0,0.0,0.0,0.0,0.000828,-0.001122,-0.052844,0.0,0.0,0.0,0.0,0.0,0.0,0.0,0.0,0.0,0.241,-0.096,-9.647,0.0,0.0,0.0,0.0,0.0,0.0,0.0,0.0,0.0
1581012849250834416,24741,1581012849248867988,,0.00856043812205,0.0109995500859,-0.314409505605,0.949185119764,0.0,0.0,0.0,0.0,0.0,0.0,0.0,0.0,0.0,0.000334,-0.001146,-0.051712,0.0,0.0,0.0,0.0,0.0,0.0,0.0,0.0,0.0,0.269,-0.077,-9.676,0.0,0.0,0.0,0.0,0.0,0.0,0.0,0.0,0.0
1581012849274338551,24742,1581012849272969007,,0.00857610871287,0.0109910460953,-0.315047337117,0.948973562667,0.0,0.0,0.0,0.0,0.0,0.0,0.0,0.0,0.0,0.002527,-0.000504,-0.051945,0.0,0.0,0.0,0.0,0.0,0.0,0.0,0.0,0.0,0.274,-0.084,-9.666,0.0,0.0,0.0,0.0,0.0,0.0,0.0,0.0,0.0
1581012849300317921,24743,1581012849298168897,,0.00858880791476,0.0110019904775,-0.315668376398,0.948766918019,0.0,0.0,0.0,0.0,0.0,0.0,0.0,0.0,0.0,0.002609,0.000267,-0.053373,0.0,0.0,0.0,0.0,0.0,0.0,0.0,0.0,0.0,0.271,-0.087,-9.652,0.0,0.0,0.0,0.0,0.0,0.0,0.0,0.0,0.0
1581012849324368274,24744,1581012849323029994,,0.00859334362296,0.0109880136807,-0.316297550538,0.948557471914,0.0,0.0,0.0,0.0,0.0,0.0,0.0,0.0,0.0,0.001592,-0.001326,-0.052335,0.0,0.0,0.0,0.0,0.0,0.0,0.0,0.0,0.0,0.26,-0.079,-9.64,0.0,0.0,0.0,0.0,0.0,0.0,0.0,0.0,0.0
1581012849349200504,24745,1581012849347902059,,0.00859225750251,0.010985152631,-0.31691821631,0.948350327518,0.0,0.0,0.0,0.0,0.0,0.0,0.0,0.0,0.0,0.001614,-0.001008,-0.051063,0.0,0.0,0.0,0.0,0.0,0.0,0.0,0.0,0.0,0.268,-0.074,-9.703,0.0,0.0,0.0,0.0,0.0,0.0,0.0,0.0,0.0
1581012849374665144,24746,1581012849373099088,,0.00860227511184,0.0109601316474,-0.317547207495,0.948140099031,0.0,0.0,0.0,0.0,0.0,0.0,0.0,0.0,0.0,0.00251,-0.000473,-0.052854,0.0,0.0,0.0,0.0,0.0,0.0,0.0,0.0,0.0,0.267,-0.088,-9.652,0.0,0.0,0.0,0.0,0.0,0.0,0.0,0.0,0.0
1581012849400351016,24747,1581012849398011922,,0.00861484790533,0.0109435251572,-0.318159516642,0.947934884695,0.0,0.0,0.0,0.0,0.0,0.0,0.0,0.0,0.0,0.001562,-0.000444,-0.052154,0.0,0.0,0.0,0.0,0.0,0.0,0.0,0.0,0.0,0.271,-0.102,-9.673,0.0,0.0,0.0,0.0,0.0,0.0,0.0,0.0,0.0
1581012849424816996,24748,1581012849423103094,,0.00862776149307,0.0109542754568,-0.318796415781,0.947720639675,0.0,0.0,0.0,0.0,0.0,0.0,0.0,0.0,0.0,0.002387,0.000848,-0.052299,0.0,0.0,0.0,0.0,0.0,0.0,0.0,0.0,0.0,0.281,-0.094,-9.692,0.0,0.0,0.0,0.0,0.0,0.0,0.0,0.0,0.0
1581012849449640764,24749,1581012849447895050,,0.00864867998395,0.0109347824371,-0.319416817903,0.947511755763,0.0,0.0,0.0,0.0,0.0,0.0,0.0,0.0,0.0,0.001954,-0.000604,-0.051697,0.0,0.0,0.0,0.0,0.0,0.0,0.0,0.0,0.0,0.248,-0.08,-9.698,0.0,0.0,0.0,0.0,0.0,0.0,0.0,0.0,0.0
1581012849475096366,24750,1581012849473376989,,0.00866400635232,0.0109264023066,-0.320028723016,0.947305212258,0.0,0.0,0.0,0.0,0.0,0.0,0.0,0.0,0.0,0.001905,3.3e-05,-0.051105,0.0,0.0,0.0,0.0,0.0,0.0,0.0,0.0,0.0,0.233,-0.076,-9.672,0.0,0.0,0.0,0.0,0.0,0.0,0.0,0.0,0.0
1581012849500558430,24751,1581012849498511075,,0.00867115580971,0.0109207293879,-0.320648664238,0.947095551066,0.0,0.0,0.0,0.0,0.0,0.0,0.0,0.0,0.0,0.001989,0.000865,-0.052819,0.0,0.0,0.0,0.0,0.0,0.0,0.0,0.0,0.0,0.279,-0.094,-9.706,0.0,0.0,0.0,0.0,0.0,0.0,0.0,0.0,0.0
1581012849525002610,24752,1581012849523303031,,0.00866714063773,0.0109096675405,-0.321260107604,0.946888485034,0.0,0.0,0.0,0.0,0.0,0.0,0.0,0.0,0.0,0.001014,-0.001853,-0.051485,0.0,0.0,0.0,0.0,0.0,0.0,0.0,0.0,0.0,0.246,-0.104,-9.668,0.0,0.0,0.0,0.0,0.0,0.0,0.0,0.0,0.0
1581012849550503800,24753,1581012849548297882,,0.00867128106202,0.0108958822469,-0.321863251081,0.946683757249,0.0,0.0,0.0,0.0,0.0,0.0,0.0,0.0,0.0,0.002652,0.000127,-0.052527,0.0,0.0,0.0,0.0,0.0,0.0,0.0,0.0,0.0,0.26,-0.108,-9.687,0.0,0.0,0.0,0.0,0.0,0.0,0.0,0.0,0.0
1581012849575294542,24754,1581012849573345899,,0.00868385690242,0.0108791304982,-0.322482878139,0.946472941217,0.0,0.0,0.0,0.0,0.0,0.0,0.0,0.0,0.0,0.001432,-0.001135,-0.051369,0.0,0.0,0.0,0.0,0.0,0.0,0.0,0.0,0.0,0.244,-0.075,-9.686,0.0,0.0,0.0,0.0,0.0,0.0,0.0,0.0,0.0
1581012849599704395,24755,1581012849597867012,,0.00868271772499,0.0108762641963,-0.323102179214,0.94626174977,0.0,0.0,0.0,0.0,0.0,0.0,0.0,0.0,0.0,0.000988,-0.000572,-0.052295,0.0,0.0,0.0,0.0,0.0,0.0,0.0,0.0,0.0,0.265,-0.064,-9.644,0.0,0.0,0.0,0.0,0.0,0.0,0.0,0.0,0.0
1581012849624620578,24756,1581012849623387098,,0.00868729474963,0.0108620954198,-0.323746202412,0.946041723296,0.0,0.0,0.0,0.0,0.0,0.0,0.0,0.0,0.0,0.001218,-0.000623,-0.051882,0.0,0.0,0.0,0.0,0.0,0.0,0.0,0.0,0.0,0.246,-0.104,-9.68,0.0,0.0,0.0,0.0,0.0,0.0,0.0,0.0,0.0
1581012849649863460,24757,1581012849648195981,,0.00868614819234,0.0108592378935,-0.324365221134,0.945829705127,0.0,0.0,0.0,0.0,0.0,0.0,0.0,0.0,0.0,0.000872,-0.001015,-0.051597,0.0,0.0,0.0,0.0,0.0,0.0,0.0,0.0,0.0,0.283,-0.081,-9.669,0.0,0.0,0.0,0.0,0.0,0.0,0.0,0.0,0.0
1581012849675267160,24758,1581012849673338890,,0.00869051332066,0.0108452222429,-0.324992446129,0.945614491266,0.0,0.0,0.0,0.0,0.0,0.0,0.0,0.0,0.0,0.001637,0.000238,-0.053217,0.0,0.0,0.0,0.0,0.0,0.0,0.0,0.0,0.0,0.258,-0.08,-9.664,0.0,0.0,0.0,0.0,0.0,0.0,0.0,0.0,0.0
1581012849700068064,24759,1581012849698290109,,0.00868651897226,0.0108341229522,-0.325611183599,0.945401778761,0.0,0.0,0.0,0.0,0.0,0.0,0.0,0.0,0.0,0.00173,-0.001633,-0.051597,0.0,0.0,0.0,0.0,0.0,0.0,0.0,0.0,0.0,0.271,-0.079,-9.668,0.0,0.0,0.0,0.0,0.0,0.0,0.0,0.0,0.0
1581012849725215118,24760,1581012849723318099,,0.00868545422286,0.0108312064166,-0.326238031636,0.945185693167,0.0,0.0,0.0,0.0,0.0,0.0,0.0,0.0,0.0,0.001365,-0.000608,-0.052422,0.0,0.0,0.0,0.0,0.0,0.0,0.0,0.0,0.0,0.27,-0.092,-9.663,0.0,0.0,0.0,0.0,0.0,0.0,0.0,0.0,0.0
1581012849751643766,24761,1581012849749516010,,0.00870392270736,0.0108306860385,-0.326881419306,0.944963213931,0.0,0.0,0.0,0.0,0.0,0.0,0.0,0.0,0.0,0.001332,-0.000145,-0.052114,0.0,0.0,0.0,0.0,0.0,0.0,0.0,0.0,0.0,0.261,-0.103,-9.634,0.0,0.0,0.0,0.0,0.0,0.0,0.0,0.0,0.0
1581012849775649505,24762,1581012849773380994,,0.00870815254547,0.0108167421733,-0.327499824958,0.944749189373,0.0,0.0,0.0,0.0,0.0,0.0,0.0,0.0,0.0,0.001583,-0.001464,-0.05146,0.0,0.0,0.0,0.0,0.0,0.0,0.0,0.0,0.0,0.261,-0.092,-9.707,0.0,0.0,0.0,0.0,0.0,0.0,0.0,0.0,0.0
1581012849799592705,24763,1581012849798141956,,0.00871541890794,0.0108108882733,-0.328134576857,0.944528912019,0.0,0.0,0.0,0.0,0.0,0.0,0.0,0.0,0.0,0.001114,-0.001763,-0.051998,0.0,0.0,0.0,0.0,0.0,0.0,0.0,0.0,0.0,0.281,-0.106,-9.68,0.0,0.0,0.0,0.0,0.0,0.0,0.0,0.0,0.0
1581012849824637693,24764,1581012849823232889,,0.00872777134957,0.0107941479399,-0.328744551629,0.944316860038,0.0,0.0,0.0,0.0,0.0,0.0,0.0,0.0,0.0,0.000968,-0.001641,-0.051889,0.0,0.0,0.0,0.0,0.0,0.0,0.0,0.0,0.0,0.254,-0.086,-9.636,0.0,0.0,0.0,0.0,0.0,0.0,0.0,0.0,0.0
1581012849850578799,24765,1581012849848381042,,0.00871807395812,0.0107944100168,-0.329337630133,0.94411026966,0.0,0.0,0.0,0.0,0.0,0.0,0.0,0.0,0.0,0.000978,-0.000833,-0.051414,0.0,0.0,0.0,0.0,0.0,0.0,0.0,0.0,0.0,0.249,-0.078,-9.69,0.0,0.0,0.0,0.0,0.0,0.0,0.0,0.0,0.0
1581012849875916096,24766,1581012849873902082,,0.00871420978544,0.0107831916676,-0.329971857276,0.943888954661,0.0,0.0,0.0,0.0,0.0,0.0,0.0,0.0,0.0,0.000648,-0.002945,-0.051428,0.0,0.0,0.0,0.0,0.0,0.0,0.0,0.0,0.0,0.25,-0.086,-9.686,0.0,0.0,0.0,0.0,0.0,0.0,0.0,0.0,0.0
1581012849900039540,24767,1581012849898164987,,0.00872126550093,0.0107774859215,-0.330589560433,0.943672786435,0.0,0.0,0.0,0.0,0.0,0.0,0.0,0.0,0.0,0.00094,-0.000665,-0.051537,0.0,0.0,0.0,0.0,0.0,0.0,0.0,0.0,0.0,0.254,-0.103,-9.682,0.0,0.0,0.0,0.0,0.0,0.0,0.0,0.0,0.0
1581012849924567585,24768,1581012849923300981,,0.00873139494917,0.0107798567292,-0.331223589039,0.943450312149,0.0,0.0,0.0,0.0,0.0,0.0,0.0,0.0,0.0,0.000754,-0.000964,-0.052152,0.0,0.0,0.0,0.0,0.0,0.0,0.0,0.0,0.0,0.262,-0.089,-9.665,0.0,0.0,0.0,0.0,0.0,0.0,0.0,0.0,0.0
1581012849949983860,24769,1581012849948173999,,0.00873265876713,0.0107576765009,-0.331841003579,0.943233566733,0.0,0.0,0.0,0.0,0.0,0.0,0.0,0.0,0.0,0.001855,-0.000442,-0.051776,0.0,0.0,0.0,0.0,0.0,0.0,0.0,0.0,0.0,0.262,-0.079,-9.635,0.0,0.0,0.0,0.0,0.0,0.0,0.0,0.0,0.0
1581012849975119801,24770,1581012849973362922,,0.00873969777904,0.0107519586854,-0.332458277385,0.943016175294,0.0,0.0,0.0,0.0,0.0,0.0,0.0,0.0,0.0,0.00272,-0.000849,-0.050915,0.0,0.0,0.0,0.0,0.0,0.0,0.0,0.0,0.0,0.252,-0.074,-9.645,0.0,0.0,0.0,0.0,0.0,0.0,0.0,0.0,0.0
1581012850000865675,24771,1581012849998431921,,0.00874082815265,0.0107298568969,-0.333067180251,0.942801528178,0.0,0.0,0.0,0.0,0.0,0.0,0.0,0.0,0.0,0.000651,-0.001158,-0.051842,0.0,0.0,0.0,0.0,0.0,0.0,0.0,0.0,0.0,0.248,-0.086,-9.647,0.0,0.0,0.0,0.0,0.0,0.0,0.0,0.0,0.0
1581012850024815125,24772,1581012850023185968,,0.00873943613966,0.0107271982174,-0.333667626193,0.942589234346,0.0,0.0,0.0,0.0,0.0,0.0,0.0,0.0,0.0,-0.000239,-0.000164,-0.052388,0.0,0.0,0.0,0.0,0.0,0.0,0.0,0.0,0.0,0.259,-0.114,-9.652,0.0,0.0,0.0,0.0,0.0,0.0,0.0,0.0,0.0
1581012850049329144,24773,1581012850048002004,,0.00875778233573,0.0107266300284,-0.334301019239,0.942364615843,0.0,0.0,0.0,0.0,0.0,0.0,0.0,0.0,0.0,0.001964,-0.000869,-0.051812,0.0,0.0,0.0,0.0,0.0,0.0,0.0,0.0,0.0,0.255,-0.093,-9.672,0.0,0.0,0.0,0.0,0.0,0.0,0.0,0.0,0.0
1581012850074788821,24774,1581012850073297977,,0.00877019454665,0.0107096744057,-0.334926038726,0.942142736078,0.0,0.0,0.0,0.0,0.0,0.0,0.0,0.0,0.0,0.000112,-0.001211,-0.052165,0.0,0.0,0.0,0.0,0.0,0.0,0.0,0.0,0.0,0.272,-0.1,-9.673,0.0,0.0,0.0,0.0,0.0,0.0,0.0,0.0,0.0
1581012850099781845,24775,1581012850098036050,,0.00878542196455,0.0107010038713,-0.335542691321,0.941923249091,0.0,0.0,0.0,0.0,0.0,0.0,0.0,0.0,0.0,0.002016,-0.000363,-0.050568,0.0,0.0,0.0,0.0,0.0,0.0,0.0,0.0,0.0,0.256,-0.095,-9.664,0.0,0.0,0.0,0.0,0.0,0.0,0.0,0.0,0.0
1581012850124766555,24776,1581012850123284101,,0.00878958459628,0.01068695656,-0.336167324327,0.941700622394,0.0,0.0,0.0,0.0,0.0,0.0,0.0,0.0,0.0,0.002102,-0.000871,-0.051376,0.0,0.0,0.0,0.0,0.0,0.0,0.0,0.0,0.0,0.28,-0.09,-9.699,0.0,0.0,0.0,0.0,0.0,0.0,0.0,0.0,0.0
1581012850149562359,24777,1581012850148092031,,0.0087965773099,0.0106812015018,-0.336783593897,0.941480399713,0.0,0.0,0.0,0.0,0.0,0.0,0.0,0.0,0.0,0.000531,-0.001243,-0.052563,0.0,0.0,0.0,0.0,0.0,0.0,0.0,0.0,0.0,0.26,-0.112,-9.685,0.0,0.0,0.0,0.0,0.0,0.0,0.0,0.0,0.0
1581012850174877269,24778,1581012850173235893,,0.00881481686672,0.0106806349762,-0.337408026596,0.941256631652,0.0,0.0,0.0,0.0,0.0,0.0,0.0,0.0,0.0,0.000123,-0.000518,-0.053706,0.0,0.0,0.0,0.0,0.0,0.0,0.0,0.0,0.0,0.237,-0.101,-9.653,0.0,0.0,0.0,0.0,0.0,0.0,0.0,0.0,0.0
1581012850200411661,24779,1581012850198291063,,0.00883296633169,0.0106801260337,-0.338024098639,0.941035399097,0.0,0.0,0.0,0.0,0.0,0.0,0.0,0.0,0.0,0.001054,0.000733,-0.052233,0.0,0.0,0.0,0.0,0.0,0.0,0.0,0.0,0.0,0.26,-0.098,-9.696,0.0,0.0,0.0,0.0,0.0,0.0,0.0,0.0,0.0
1581012850224537679,24780,1581012850223202943,,0.00884300197149,0.010682475927,-0.338648142642,0.940810885093,0.0,0.0,0.0,0.0,0.0,0.0,0.0,0.0,0.0,0.001495,0.000698,-0.051872,0.0,0.0,0.0,0.0,0.0,0.0,0.0,0.0,0.0,0.263,-0.102,-9.686,0.0,0.0,0.0,0.0,0.0,0.0,0.0,0.0,0.0
1581012850249690083,24781,1581012850248003959,,0.00885304461166,0.0106848172019,-0.339272037499,0.940585957185,0.0,0.0,0.0,0.0,0.0,0.0,0.0,0.0,0.0,0.001949,-0.000266,-0.051435,0.0,0.0,0.0,0.0,0.0,0.0,0.0,0.0,0.0,0.251,-0.085,-9.68,0.0,0.0,0.0,0.0,0.0,0.0,0.0,0.0,0.0
1581012850274480512,24782,1581012850273113965,,0.00885192290734,0.0106819094407,-0.339895689862,0.940360813882,0.0,0.0,0.0,0.0,0.0,0.0,0.0,0.0,0.0,0.001471,-0.000855,-0.05106,0.0,0.0,0.0,0.0,0.0,0.0,0.0,0.0,0.0,0.262,-0.094,-9.714,0.0,0.0,0.0,0.0,0.0,0.0,0.0,0.0,0.0
1581012850299638091,24783,1581012850298022985,,0.00885386509258,0.010687135192,-0.340527396651,0.940132164296,0.0,0.0,0.0,0.0,0.0,0.0,0.0,0.0,0.0,0.001735,-0.001686,-0.052566,0.0,0.0,0.0,0.0,0.0,0.0,0.0,0.0,0.0,0.262,-0.064,-9.692,0.0,0.0,0.0,0.0,0.0,0.0,0.0,0.0,0.0
1581012850325272474,24784,1581012850323873996,,0.00887203618851,0.0106865636489,-0.341142731544,0.939908889758,0.0,0.0,0.0,0.0,0.0,0.0,0.0,0.0,0.0,0.002103,0.001426,-0.051235,0.0,0.0,0.0,0.0,0.0,0.0,0.0,0.0,0.0,0.258,-0.097,-9.664,0.0,0.0,0.0,0.0,0.0,0.0,0.0,0.0,0.0
1581012850350450791,24785,1581012850348079919,,0.00887595409804,0.0106726314154,-0.341749627515,0.9396885146,0.0,0.0,0.0,0.0,0.0,0.0,0.0,0.0,0.0,0.002527,-0.00047,-0.051716,0.0,0.0,0.0,0.0,0.0,0.0,0.0,0.0,0.0,0.263,-0.09,-9.702,0.0,0.0,0.0,0.0,0.0,0.0,0.0,0.0,0.0
1581012850374375640,24786,1581012850373040914,,0.00888805611624,0.0106557109574,-0.342356474102,0.939467669972,0.0,0.0,0.0,0.0,0.0,0.0,0.0,0.0,0.0,0.001641,-0.001389,-0.051518,0.0,0.0,0.0,0.0,0.0,0.0,0.0,0.0,0.0,0.261,-0.096,-9.662,0.0,0.0,0.0,0.0,0.0,0.0,0.0,0.0,0.0
1581012850400129965,24787,1581012850398122072,,0.00889512129607,0.0106498138323,-0.342979477315,0.939240403956,0.0,0.0,0.0,0.0,0.0,0.0,0.0,0.0,0.0,0.001435,0.000263,-0.051283,0.0,0.0,0.0,0.0,0.0,0.0,0.0,0.0,0.0,0.255,-0.097,-9.657,0.0,0.0,0.0,0.0,0.0,0.0,0.0,0.0,0.0
1581012850425293994,24788,1581012850423464059,,0.00890218256323,0.0106439120226,-0.343602329662,0.939012724798,0.0,0.0,0.0,0.0,0.0,0.0,0.0,0.0,0.0,0.000981,-0.001577,-0.05249,0.0,0.0,0.0,0.0,0.0,0.0,0.0,0.0,0.0,0.254,-0.1,-9.701,0.0,0.0,0.0,0.0,0.0,0.0,0.0,0.0,0.0
1581012850450015233,24789,1581012850447959899,,0.00890614422746,0.0106298904415,-0.344216839077,0.938787757547,0.0,0.0,0.0,0.0,0.0,0.0,0.0,0.0,0.0,0.001564,0.000759,-0.053423,0.0,0.0,0.0,0.0,0.0,0.0,0.0,0.0,0.0,0.261,-0.087,-9.677,0.0,0.0,0.0,0.0,0.0,0.0,0.0,0.0,0.0
1581012850474194216,24790,1581012850472898960,,0.00892156812237,0.0106208163246,-0.34485586454,0.938553161294,0.0,0.0,0.0,0.0,0.0,0.0,0.0,0.0,0.0,0.002063,-0.000828,-0.052005,0.0,0.0,0.0,0.0,0.0,0.0,0.0,0.0,0.0,0.265,-0.097,-9.633,0.0,0.0,0.0,0.0,0.0,0.0,0.0,0.0,0.0
1581012850500362405,24791,1581012850498178958,,0.00892861015184,0.0106148969811,-0.345478260678,0.938324237821,0.0,0.0,0.0,0.0,0.0,0.0,0.0,0.0,0.0,0.001266,-0.000943,-0.052594,0.0,0.0,0.0,0.0,0.0,0.0,0.0,0.0,0.0,0.255,-0.09,-9.689,0.0,0.0,0.0,0.0,0.0,0.0,0.0,0.0,0.0
1581012850525032754,24792,1581012850523420095,,0.00894187227845,0.0106251904908,-0.346116875945,0.938088618646,0.0,0.0,0.0,0.0,0.0,0.0,0.0,0.0,0.0,0.001492,-0.00011,-0.051589,0.0,0.0,0.0,0.0,0.0,0.0,0.0,0.0,0.0,0.251,-0.111,-9.638,0.0,0.0,0.0,0.0,0.0,0.0,0.0,0.0,0.0
1581012850550537245,24793,1581012850548382997,,0.0089489172045,0.0106192576801,-0.346738963709,0.93785885894,0.0,0.0,0.0,0.0,0.0,0.0,0.0,0.0,0.0,0.000989,-0.001034,-0.05229,0.0,0.0,0.0,0.0,0.0,0.0,0.0,0.0,0.0,0.254,-0.099,-9.682,0.0,0.0,0.0,0.0,0.0,0.0,0.0,0.0,0.0
1581012850574798418,24794,1581012850573375940,,0.00894777584001,0.0106163514936,-0.347360806322,0.937628764821,0.0,0.0,0.0,0.0,0.0,0.0,0.0,0.0,0.0,0.002022,-0.000641,-0.05237,0.0,0.0,0.0,0.0,0.0,0.0,0.0,0.0,0.0,0.245,-0.103,-9.669,0.0,0.0,0.0,0.0,0.0,0.0,0.0,0.0,0.0
1581012850602072708,24795,1581012850599666118,,0.00895481490252,0.0106104147695,-0.347982588826,0.937398180211,0.0,0.0,0.0,0.0,0.0,0.0,0.0,0.0,0.0,0.0022,-0.000448,-0.051809,0.0,0.0,0.0,0.0,0.0,0.0,0.0,0.0,0.0,0.226,-0.091,-9.712,0.0,0.0,0.0,0.0,0.0,0.0,0.0,0.0,0.0
1581012850625272394,24796,1581012850623400926,,0.00896470593921,0.0106128085434,-0.348587860279,0.937173146227,0.0,0.0,0.0,0.0,0.0,0.0,0.0,0.0,0.0,0.001544,5.7e-05,-0.050998,0.0,0.0,0.0,0.0,0.0,0.0,0.0,0.0,0.0,0.247,-0.08,-9.646,0.0,0.0,0.0,0.0,0.0,0.0,0.0,0.0,0.0
1581012850650180765,24797,1581012850648330926,,0.00897973393427,0.0106039698923,-0.349193080114,0.936947764286,0.0,0.0,0.0,0.0,0.0,0.0,0.0,0.0,0.0,0.001712,-0.000464,-0.051843,0.0,0.0,0.0,0.0,0.0,0.0,0.0,0.0,0.0,0.261,-0.084,-9.688,0.0,0.0,0.0,0.0,0.0,0.0,0.0,0.0,0.0
1581012850674900129,24798,1581012850673371076,,0.00898981647702,0.01060618674,-0.349814409165,0.936715843329,0.0,0.0,0.0,0.0,0.0,0.0,0.0,0.0,0.0,0.002391,-0.000505,-0.0515,0.0,0.0,0.0,0.0,0.0,0.0,0.0,0.0,0.0,0.276,-0.098,-9.691,0.0,0.0,0.0,0.0,0.0,0.0,0.0,0.0,0.0
1581012850700389794,24799,1581012850698252916,,0.00899379166867,0.0105920493969,-0.350435587131,0.936483752915,0.0,0.0,0.0,0.0,0.0,0.0,0.0,0.0,0.0,0.00165,-0.001043,-0.052006,0.0,0.0,0.0,0.0,0.0,0.0,0.0,0.0,0.0,0.286,-0.093,-9.666,0.0,0.0,0.0,0.0,0.0,0.0,0.0,0.0,0.0
1581012850725332641,24800,1581012850723429918,,0.00901529500451,0.0105992026852,-0.351073039539,0.936244680769,0.0,0.0,0.0,0.0,0.0,0.0,0.0,0.0,0.0,0.00098,-0.000239,-0.051292,0.0,0.0,0.0,0.0,0.0,0.0,0.0,0.0,0.0,0.254,-0.078,-9.725,0.0,0.0,0.0,0.0,0.0,0.0,0.0,0.0,0.0
1581012850750164371,24801,1581012850748253107,,0.00900886915515,0.0106076852567,-0.351677380026,0.936017808414,0.0,0.0,0.0,0.0,0.0,0.0,0.0,0.0,0.0,0.00086,0.001192,-0.051473,0.0,0.0,0.0,0.0,0.0,0.0,0.0,0.0,0.0,0.228,-0.095,-9.674,0.0,0.0,0.0,0.0,0.0,0.0,0.0,0.0,0.0
1581012850775259436,24802,1581012850773318052,,0.00901580993887,0.010601786694,-0.352289926882,0.935787435643,0.0,0.0,0.0,0.0,0.0,0.0,0.0,0.0,0.0,0.001702,-0.000382,-0.052465,0.0,0.0,0.0,0.0,0.0,0.0,0.0,0.0,0.0,0.264,-0.076,-9.666,0.0,0.0,0.0,0.0,0.0,0.0,0.0,0.0,0.0
1581012850799660538,24803,1581012850798204898,,0.00902601058194,0.010603890709,-0.352918649371,0.935550381092,0.0,0.0,0.0,0.0,0.0,0.0,0.0,0.0,0.0,0.001114,-0.000259,-0.052045,0.0,0.0,0.0,0.0,0.0,0.0,0.0,0.0,0.0,0.26,-0.102,-9.653,0.0,0.0,0.0,0.0,0.0,0.0,0.0,0.0,0.0
1581012850824629711,24804,1581012850823246955,,0.00902487918976,0.0106009873102,-0.353538959718,0.93531618963,0.0,0.0,0.0,0.0,0.0,0.0,0.0,0.0,0.0,0.001884,-0.000334,-0.053528,0.0,0.0,0.0,0.0,0.0,0.0,0.0,0.0,0.0,0.269,-0.082,-9.651,0.0,0.0,0.0,0.0,0.0,0.0,0.0,0.0,0.0
1581012850849938795,24805,1581012850848201990,,0.00903499766277,0.0106031599581,-0.354159204899,0.935081386512,0.0,0.0,0.0,0.0,0.0,0.0,0.0,0.0,0.0,0.001488,0.000416,-0.052314,0.0,0.0,0.0,0.0,0.0,0.0,0.0,0.0,0.0,0.279,-0.105,-9.686,0.0,0.0,0.0,0.0,0.0,0.0,0.0,0.0,0.0
1581012850875284743,24806,1581012850873378992,,0.00904193547909,0.0105972442954,-0.354771138336,0.934849389591,0.0,0.0,0.0,0.0,0.0,0.0,0.0,0.0,0.0,0.001353,-0.000599,-0.052486,0.0,0.0,0.0,0.0,0.0,0.0,0.0,0.0,0.0,0.244,-0.104,-9.683,0.0,0.0,0.0,0.0,0.0,0.0,0.0,0.0,0.0
1581012850902713726,24807,1581012850899964094,,0.00905383286909,0.0105801453474,-0.355374858423,0.93462013601,0.0,0.0,0.0,0.0,0.0,0.0,0.0,0.0,0.0,0.001619,-0.00124,-0.051736,0.0,0.0,0.0,0.0,0.0,0.0,0.0,0.0,0.0,0.249,-0.092,-9.703,0.0,0.0,0.0,0.0,0.0,0.0,0.0,0.0,0.0
1581012850924637506,24808,1581012850923317909,,0.00906881743513,0.0105711899342,-0.355978427896,0.934390370973,0.0,0.0,0.0,0.0,0.0,0.0,0.0,0.0,0.0,0.001713,-0.00083,-0.052359,0.0,0.0,0.0,0.0,0.0,0.0,0.0,0.0,0.0,0.246,-0.123,-9.722,0.0,0.0,0.0,0.0,0.0,0.0,0.0,0.0,0.0
1581012850949725857,24809,1581012850948255062,,0.00908388637882,0.0105621403089,-0.356590000861,0.934157104285,0.0,0.0,0.0,0.0,0.0,0.0,0.0,0.0,0.0,0.001334,-0.001708,-0.051841,0.0,0.0,0.0,0.0,0.0,0.0,0.0,0.0,0.0,0.264,-0.101,-9.665,0.0,0.0,0.0,0.0,0.0,0.0,0.0,0.0,0.0
1581012850974913250,24810,1581012850973253965,,0.0090939134979,0.0105643430629,-0.357201326447,0.933923395026,0.0,0.0,0.0,0.0,0.0,0.0,0.0,0.0,0.0,0.002275,0.000893,-0.051774,0.0,0.0,0.0,0.0,0.0,0.0,0.0,0.0,0.0,0.271,-0.106,-9.663,0.0,0.0,0.0,0.0,0.0,0.0,0.0,0.0,0.0
